File: c.mpt
EC-Lab ASCII FILE
Nb header lines : 65

Cyclic Voltammetry

Run on channel : 3 (SN 4895)
User :
Electrode connection : standard
Ewe ctrl range : min = -10.00 V, max = 10.00 V
Ewe,I filtering : 50 kHz
Safety Limits :
	Do not start on E overload
Channel : Grounded
Acquisition started on : 06/04/2018 12:45:52
Technique started on : 06/04/2018 12:46:03
Saved on :
	File : GF201805_21_03_CV.mpr
	Directory : C:\Users\L004\Documents\EC-Lab\Data\2018\06 June\04June_Erdem_NO3R\
	Host : 192.109.209.127
Device : VMP-300 (SN 0241)
Address : 192.109.209.128
EC-Lab for windows v11.12 (software)
Internet server v11.12 (firmware)
Command interpretor v11.12 (firmware)
Electrode material : 201805_21
Initial state : 500rpm stirring - N2 blanket
Electrolyte : 30mM NaClO4 100ppm NaNO3
Comments : Vacuum in 90mL
Comments : 1 g/L GO 70% 130ºC 8h
Current amplifier : B-2A30V
Cable : special
Reference electrode : Ag/AgCl Ref #7 (0.208 V)
Electrode surface area : 2.000 cm²
Characteristic mass : 1.000 g
Equivalent Weight : 0.000 g/eq.
Density : 0.000 g/cm3
Record Ece
Text export
Cycle Definition : Charge/Discharge alternance
Ei (V)              0.000
vs.                 Eoc
dE/dt               50.000
dE/dt unit          mV/s
E1 (V)              -1.800
vs.                 Ref
Step percent        50
N                   10
E range min (V)     -10.000
E range max (V)     10.000
I Range             100 mA
I Range min         10 nA
I Range max         10 mA
I Range init        100 nA
Bandwidth           5
E2 (V)              1.500
vs.                 Ref
nc cycles           0
Reverse Scan        1
Ef (V)              0.000
vs.                 Eoc

Number of loops : 1
Loop 0 from point number 0 to 1984

mode	ox/red	error	control changes	counter inc.	time/s	control/V	Ewe/V	<I>/mA	cycle number	(Q-Qo)/C	<Ece>/V	Rcmp/Ohm	P/W	Ewe-Ece/V
2	0	0	0	0	11.5114	0.174227	0.174417	0.00333789	1	0.0000000E+000	0.654848	0.0000000E+000	5.82185e-07	-0.48043
2	0	0	1	0	11.748	0.162396	0.162673	-0.25013	1	-3.54749e-05	1.11678	0.0000000E+000	-4.06894e-05	-0.954111
2	0	0	1	0	12.0148	0.149056	0.149231	-0.352357	1	-0.00011845	1.33326	0.0000000E+000	-5.25826e-05	-1.18403
2	0	0	0	0	12.2814	0.135725	0.135882	-0.404341	1	-0.000220131	1.45084	0.0000000E+000	-5.49426e-05	-1.31496
2	0	0	1	0	12.548	0.122394	0.122531	-0.438868	1	-0.000333141	1.53329	0.0000000E+000	-5.37748e-05	-1.41076
2	0	0	1	0	12.8148	0.109056	0.109212	-0.464367	1	-0.000454201	1.59732	0.0000000E+000	-5.07146e-05	-1.48811
2	0	0	0	0	13.0814	0.0957253	0.0958837	-0.491063	1	-0.000582078	1.66159	0.0000000E+000	-4.70849e-05	-1.56571
2	0	0	0	0	13.3482	0.0823845	0.0825631	-0.51766	1	-0.00071711	1.72466	0.0000000E+000	-4.27396e-05	-1.6421
2	0	0	1	0	13.6148	0.0690536	0.0692103	-0.538422	1	-0.000858171	1.77802	0.0000000E+000	-3.72644e-05	-1.7088
2	0	0	1	0	13.8816	0.0557161	0.0558532	-0.558908	1	-0.00100492	1.83009	0.0000000E+000	-3.12168e-05	-1.77423
2	0	0	0	0	14.1482	0.0423852	0.0425404	-0.579638	1	-0.00115725	1.88255	0.0000000E+000	-2.4658e-05	-1.84001
2	0	0	1	0	14.4148	0.0290543	0.0291798	-0.599128	1	-0.00131466	1.93314	0.0000000E+000	-1.74824e-05	-1.90396
2	0	0	1	0	14.6816	0.0157168	0.0158517	-0.610679	1	-0.00147601	1.96929	0.0000000E+000	-9.68027e-06	-1.95344
2	0	0	0	0	14.9482	0.00238589	0.0025121	-0.624879	1	-0.00164108	2.01039	0.0000000E+000	-1.56976e-06	-2.00788
2	0	0	0	0	15.215	-0.010955	-0.0108628	-0.637089	1	-0.0018098	2.04747	0.0000000E+000	6.92056e-06	-2.05833
2	0	0	1	0	15.4816	-0.0242859	-0.0241951	-0.656127	1	-0.00198267	2.09643	0.0000000E+000	1.5875e-05	-2.12062
2	0	0	1	0	15.7484	-0.0376234	-0.0375411	-0.665314	1	-0.00215869	2.12861	0.0000000E+000	2.49766e-05	-2.16615
2	0	0	0	0	16.015	-0.0509543	-0.0509061	-0.67282	1	-0.00233745	2.15836	0.0000000E+000	3.42506e-05	-2.20926
2	0	0	1	0	16.2816	-0.0642852	-0.0642092	-0.677893	1	-0.00251779	2.18328	0.0000000E+000	4.3527e-05	-2.24749
2	0	0	1	0	16.5484	-0.0776261	-0.0775219	-0.688252	1	-0.00270047	2.21634	0.0000000E+000	5.33545e-05	-2.29386
2	0	0	0	0	16.815	-0.0909536	-0.0908766	-0.69342	1	-0.00288507	2.24032	0.0000000E+000	6.30157e-05	-2.33119
2	0	0	0	0	17.0818	-0.104294	-0.104216	-0.702478	1	-0.00307144	2.27052	0.0000000E+000	7.32096e-05	-2.37473
2	0	0	1	0	17.3484	-0.117625	-0.117551	-0.712519	1	-0.00326068	2.30128	0.0000000E+000	8.37576e-05	-2.41883
2	0	0	0	0	17.615	-0.130956	-0.130871	-0.721666	1	-0.00345243	2.3293	0.0000000E+000	9.44449e-05	-2.46017
2	0	0	0	0	17.8818	-0.144294	-0.144218	-0.730061	1	-0.00364644	2.3551	0.0000000E+000	0.000105288	-2.49932
2	0	0	1	0	18.1484	-0.157625	-0.157544	-0.740136	1	-0.00384242	2.38242	0.0000000E+000	0.000116604	-2.53997
2	0	0	1	0	18.4152	-0.170966	-0.170894	-0.751309	1	-0.00404223	2.41085	0.0000000E+000	0.000128394	-2.58174
2	0	0	0	0	18.6818	-0.184296	-0.184208	-0.760436	1	-0.00424411	2.43397	0.0000000E+000	0.000140078	-2.61818
2	0	0	0	0	18.9486	-0.197634	-0.19754	-0.770127	1	-0.00444857	2.45719	0.0000000E+000	0.000152131	-2.65473
2	0	0	1	0	19.2152	-0.210965	-0.210894	-0.785215	1	-0.00465601	2.48915	0.0000000E+000	0.000165597	-2.70005
2	0	0	0	0	19.4818	-0.224296	-0.224219	-0.802087	1	-0.00486786	2.52214	0.0000000E+000	0.000179844	-2.74636
2	0	0	0	0	19.7486	-0.237633	-0.23754	-0.823716	1	-0.00508515	2.56254	0.0000000E+000	0.000195666	-2.80008
2	0	0	1	0	20.0152	-0.250964	-0.25087	-0.852049	1	-0.00530887	2.61306	0.0000000E+000	0.000213753	-2.86393
2	0	0	1	0	20.282	-0.264305	-0.264222	-0.885883	1	-0.00554062	2.6717	0.0000000E+000	0.00023407	-2.93592
2	0	0	0	0	20.5486	-0.277636	-0.277536	-0.925378	1	-0.00578246	2.73893	0.0000000E+000	0.000256826	-3.01646
2	0	0	0	0	20.8154	-0.290973	-0.290864	-0.968517	1	-0.00603611	2.81215	0.0000000E+000	0.000281707	-3.10302
2	0	0	1	0	21.082	-0.304304	-0.304178	-1.03189	1	-0.00630335	2.9163	0.0000000E+000	0.000313878	-3.22048
2	0	0	0	0	21.3486	-0.317635	-0.31748	-1.10272	1	-0.00658767	3.03289	0.0000000E+000	0.000350091	-3.35037
2	0	0	0	0	21.6154	-0.330976	-0.330854	-1.18578	1	-0.006893	3.16805	0.0000000E+000	0.000392321	-3.49891
2	0	0	1	0	21.882	-0.344304	-0.344214	-1.28093	1	-0.00722191	3.32106	0.0000000E+000	0.000440915	-3.66527
2	0	0	1	0	22.1488	-0.357645	-0.357498	-1.39595	1	-0.00757944	3.50525	0.0000000E+000	0.00049905	-3.86274
2	0	0	0	0	22.4154	-0.370975	-0.370826	-1.52624	1	-0.00796924	3.71296	0.0000000E+000	0.000565969	-4.08379
2	0	0	1	0	22.682	-0.384306	-0.384175	-1.66967	1	-0.0083954	3.94043	0.0000000E+000	0.000641443	-4.3246
2	0	0	1	0	22.9488	-0.397644	-0.397507	-1.83192	1	-0.00886277	4.19724	0.0000000E+000	0.000728204	-4.59475
2	0	0	0	0	23.2154	-0.410975	-0.410803	-1.99491	1	-0.00937334	4.45451	0.0000000E+000	0.000819514	-4.86531
2	0	0	0	0	23.4822	-0.424316	-0.424139	-2.17848	1	-0.00993059	4.74333	0.0000000E+000	0.000923976	-5.16747
2	0	0	1	0	23.7488	-0.437645	-0.437478	-2.35588	1	-0.0105354	5.02206	0.0000000E+000	0.00103064	-5.45954
2	0	0	1	0	24.0156	-0.450984	-0.450815	-2.54001	1	-0.011189	5.31157	0.0000000E+000	0.00114507	-5.76238
2	0	0	0	0	24.2822	-0.464315	-0.464155	-2.72627	1	-0.0118914	5.60472	0.0000000E+000	0.00126541	-6.06888
2	0	0	1	0	24.5488	-0.477646	-0.477471	-2.91456	1	-0.0126445	5.89991	0.0000000E+000	0.00139162	-6.37738
2	0	0	1	0	24.8156	-0.490983	-0.490808	-3.09833	1	-0.0134471	6.18846	0.0000000E+000	0.00152068	-6.67927
2	0	0	0	0	25.0822	-0.504314	-0.504142	-3.28031	1	-0.0142978	6.47511	0.0000000E+000	0.00165374	-6.97925
2	0	0	0	0	25.349	-0.517655	-0.517534	-3.45389	1	-0.0151985	6.74859	0.0000000E+000	0.00178751	-7.26612
2	0	0	1	0	25.6156	-0.530986	-0.5308	-3.64845	1	-0.0161461	7.05574	0.0000000E+000	0.0019366	-7.58654
2	0	0	1	0	25.8824	-0.544323	-0.54415	-3.82126	1	-0.0171429	7.32991	0.0000000E+000	0.00207934	-7.87406
2	0	0	0	0	26.149	-0.557654	-0.557518	-3.99473	1	-0.0181849	7.60633	0.0000000E+000	0.00222713	-8.16385
2	0	0	1	0	26.4156	-0.570985	-0.570838	-4.14108	1	-0.0192707	7.84075	0.0000000E+000	0.00236388	-8.41158
2	0	0	1	0	26.6824	-0.584326	-0.584148	-4.30136	1	-0.020399	8.09748	0.0000000E+000	0.00251263	-8.68163
2	0	0	0	0	26.949	-0.597654	-0.597443	-4.46793	1	-0.0215693	8.36587	0.0000000E+000	0.00266933	-8.96331
2	0	0	0	0	27.2158	-0.610995	-0.610819	-4.61673	1	-0.0227814	8.60621	0.0000000E+000	0.00281998	-9.21703
2	0	0	1	0	27.4824	-0.624326	-0.624137	-4.74671	1	-0.0240301	8.81855	0.0000000E+000	0.0029626	-9.44268
2	0	0	0	0	27.749	-0.637656	-0.637495	-4.89592	1	-0.0253165	9.06216	0.0000000E+000	0.00312113	-9.69965
2	0	0	0	0	28.0158	-0.650994	-0.650803	-5.02649	1	-0.0266415	9.27937	0.0000000E+000	0.00327125	-9.93017
2	0	0	1	0	28.2824	-0.664325	-0.664164	-5.17559	1	-0.0280027	9.52536	0.0000000E+000	0.00343744	-10.1895
2	0	0	1	0	28.5492	-0.677666	-0.677524	-5.29258	1	-0.0293993	9.72175	0.0000000E+000	0.00358585	-10.3993
2	0	0	0	0	28.8158	-0.690994	-0.690794	-5.41771	1	-0.0308277	9.9315	0.0000000E+000	0.00374252	-10.6223
2	0	0	0	0	29.0826	-0.704334	-0.704155	-5.54734	1	-0.0322919	10.1494	0.0000000E+000	0.00390619	-10.8535
2	0	0	1	0	29.3492	-0.717665	-0.717521	-5.6527	1	-0.0337849	10.3302	0.0000000E+000	0.00405594	-11.0477
2	0	0	0	0	29.6158	-0.730996	-0.730937	-5.78022	1	-0.0353094	10.55	0.0000000E+000	0.00422498	-11.281
2	0	0	0	0	29.8826	-0.744333	-0.744161	-5.89251	1	-0.0368644	10.7435	0.0000000E+000	0.00438497	-11.4877
2	0	0	1	0	30.1492	-0.757664	-0.75752	-5.98447	1	-0.0384497	10.9071	0.0000000E+000	0.00453336	-11.6646
2	0	0	1	0	30.416	-0.771005	-0.770877	-6.09647	1	-0.040062	11.1025	0.0000000E+000	0.00469963	-11.8734
2	0	0	0	0	30.6826	-0.784336	-0.784202	-6.17838	1	-0.0416987	11.2509	0.0000000E+000	0.0048451	-12.0351
2	0	0	0	0	30.9494	-0.797674	-0.797542	-6.25935	1	-0.0433586	11.3968	0.0000000E+000	0.0049921	-12.1944
2	0	0	1	0	31.216	-0.811004	-0.810832	-6.35417	1	-0.0450403	11.5666	0.0000000E+000	0.00515217	-12.3775
2	0	0	0	0	31.4826	-0.824335	-0.824187	-6.44952	1	-0.046747	11.735	0.0000000E+000	0.00531561	-12.5592
2	0	0	0	0	31.7494	-0.837676	-0.837541	-6.5294	1	-0.0484772	11.8782	0.0000000E+000	0.00546864	-12.7157
2	0	0	1	0	32.016	-0.851004	-0.85088	-6.6208	1	-0.0502306	12.0436	0.0000000E+000	0.00563351	-12.8945
2	0	0	1	0	32.2828	-0.864345	-0.864177	-6.68708	1	-0.0520074	12.1642	0.0000000E+000	0.00577882	-13.0284
2	0	0	0	0	32.5494	-0.877675	-0.877545	-6.77493	1	-0.0538026	12.3175	0.0000000E+000	0.00594531	-13.195
2	0	0	1	0	32.816	-0.891006	-0.890882	-6.81826	1	-0.0556134	12.3984	0.0000000E+000	0.00607426	-13.2892
2	0	0	1	0	33.0828	-0.904344	-0.904224	-6.89713	1	-0.0574423	12.5337	0.0000000E+000	0.00623656	-13.4379
2	0	0	0	0	33.3494	-0.917675	-0.917527	-6.95242	1	-0.0592897	12.635	0.0000000E+000	0.00637903	-13.5525
2	0	0	0	0	33.6162	-0.931016	-0.930891	-7.04238	1	-0.0611585	12.7882	0.0000000E+000	0.0065557	-13.719
2	0	0	1	0	33.8828	-0.944345	-0.944248	-7.1049	1	-0.0630438	12.8961	0.0000000E+000	0.00670879	-13.8403
2	0	0	1	0	34.1496	-0.957684	-0.957591	-7.18817	1	-0.0649506	13.0346	0.0000000E+000	0.00688333	-13.9922
2	0	0	0	0	34.4162	-0.971015	-0.970892	-7.19023	1	-0.0668621	13.0367	0.0000000E+000	0.00698093	-14.0076
2	0	0	1	0	34.6828	-0.984346	-0.984204	-7.25288	1	-0.0687883	13.1338	0.0000000E+000	0.00713832	-14.118
2	0	0	1	0	34.9496	-0.997683	-0.997519	-7.34758	1	-0.0707344	13.2833	0.0000000E+000	0.00732935	-14.2808
2	0	0	0	0	35.2162	-1.01101	-1.01097	-7.34436	1	-0.0726991	13.2742	0.0000000E+000	0.00742491	-14.2851
2	0	0	0	0	35.483	-1.02436	-1.02425	-7.38577	1	-0.0746635	13.3317	0.0000000E+000	0.00756487	-14.356
2	0	0	1	0	35.7496	-1.03769	-1.0376	-7.4535	1	-0.0766438	13.4288	0.0000000E+000	0.00773378	-14.4664
2	0	0	1	0	36.0164	-1.05102	-1.0509	-7.48587	1	-0.0786348	13.4632	0.0000000E+000	0.00786692	-14.5141
2	0	0	0	0	36.283	-1.06435	-1.06432	-7.52627	1	-0.0806378	13.5091	0.0000000E+000	0.00801033	-14.5734
2	0	0	1	0	36.5496	-1.07769	-1.07763	-7.5545	1	-0.0826482	13.5302	0.0000000E+000	0.00814096	-14.6079
2	0	0	1	0	36.8164	-1.09103	-1.09097	-7.5981	1	-0.0846709	13.5738	0.0000000E+000	0.00828927	-14.6648
2	0	0	0	0	37.083	-1.10435	-1.10428	-7.60366	1	-0.0866958	13.5525	0.0000000E+000	0.00839658	-14.6568
2	0	0	0	0	37.3498	-1.11769	-1.11762	-7.63394	1	-0.0887294	13.5675	0.0000000E+000	0.00853185	-14.6851
2	0	0	1	0	37.6164	-1.13103	-1.13098	-7.65958	1	-0.090767	13.5756	0.0000000E+000	0.0086628	-14.7065
2	0	0	0	0	37.883	-1.14436	-1.14429	-7.69144	1	-0.0928138	13.5928	0.0000000E+000	0.00880126	-14.7371
2	0	0	0	0	38.1498	-1.15769	-1.15764	-7.69721	1	-0.0948691	13.5646	0.0000000E+000	0.00891057	-14.7222
2	0	0	1	0	38.4164	-1.17102	-1.17098	-7.76765	1	-0.0969317	13.6368	0.0000000E+000	0.00909574	-14.8077
2	0	0	1	0	38.6832	-1.18437	-1.18432	-7.74713	1	-0.0989965	13.5651	0.0000000E+000	0.00917508	-14.7495
2	0	0	0	0	38.9498	-1.19769	-1.1976	-7.74998	1	-0.101061	13.5285	0.0000000E+000	0.00928137	-14.7261
2	0	0	0	0	39.2166	-1.21103	-1.21092	-7.79783	1	-0.103137	13.5626	0.0000000E+000	0.00944257	-14.7736
2	0	0	1	0	39.4832	-1.22437	-1.22428	-7.83668	1	-0.105223	13.5833	0.0000000E+000	0.00959427	-14.8076
2	0	0	0	0	39.7498	-1.2377	-1.23766	-7.80635	1	-0.107309	13.495	0.0000000E+000	0.00966164	-14.7326
2	0	0	0	0	40.0166	-1.25103	-1.25096	-7.84973	1	-0.109397	13.5249	0.0000000E+000	0.0098197	-14.7759
2	0	0	1	0	40.2832	-1.26436	-1.26431	-7.91176	1	-0.1115	13.5804	0.0000000E+000	0.0100029	-14.8447
2	0	0	1	0	40.55	-1.27771	-1.27761	-7.89004	1	-0.113605	13.5068	0.0000000E+000	0.0100804	-14.7844
2	0	0	0	0	40.8166	-1.29104	-1.29095	-7.93542	1	-0.115713	13.5379	0.0000000E+000	0.0102442	-14.8288
2	0	0	0	0	41.0834	-1.30437	-1.30423	-7.93887	1	-0.117828	13.5041	0.0000000E+000	0.0103541	-14.8083
2	0	0	1	0	41.35	-1.3177	-1.31761	-8.00857	1	-0.11996	13.5747	0.0000000E+000	0.0105522	-14.8923
2	0	0	0	0	41.6166	-1.33104	-1.33092	-8.06861	1	-0.122104	13.6282	0.0000000E+000	0.0107387	-14.9591
2	0	0	0	0	41.8834	-1.34438	-1.34428	-8.10498	1	-0.124261	13.6461	0.0000000E+000	0.0108953	-14.9904
2	0	0	1	0	42.15	-1.3577	-1.35763	-8.14632	1	-0.126427	13.6732	0.0000000E+000	0.0110597	-15.0308
2	0	0	1	0	42.4168	-1.37104	-1.37092	-8.2037	1	-0.128609	13.722	0.0000000E+000	0.0112466	-15.0929
2	0	0	0	0	42.6834	-1.38438	-1.38423	-8.30386	1	-0.13081	13.8353	0.0000000E+000	0.0114945	-15.2195
2	0	0	1	0	42.95	-1.39771	-1.39759	-8.34943	1	-0.133029	13.8668	0.0000000E+000	0.0116691	-15.2644
2	0	0	1	0	43.2168	-1.41104	-1.41091	-8.42408	1	-0.135267	13.9411	0.0000000E+000	0.0118856	-15.352
2	0	0	0	0	43.4834	-1.42437	-1.4242	-8.51978	1	-0.137526	14.0498	0.0000000E+000	0.0121338	-15.474
2	0	0	0	0	43.7502	-1.43772	-1.4375	-8.67618	1	-0.139822	14.2484	0.0000000E+000	0.012472	-15.6859
2	0	0	1	0	44.0168	-1.45104	-1.45087	-8.76405	1	-0.142147	14.3379	0.0000000E+000	0.0127155	-15.7888
2	0	0	1	0	44.2836	-1.46438	-1.46421	-8.88988	1	-0.144501	14.4869	0.0000000E+000	0.0130166	-15.9511
2	0	0	0	0	44.5502	-1.47772	-1.47755	-9.00333	1	-0.146887	14.6161	0.0000000E+000	0.0133028	-16.0936
2	0	0	1	0	44.8168	-1.49105	-1.49082	-9.16453	1	-0.149309	14.8172	0.0000000E+000	0.0136627	-16.308
2	0	0	1	0	45.0836	-1.50438	-1.50413	-9.29587	1	-0.151771	14.9725	0.0000000E+000	0.0139822	-16.4766
2	0	0	0	0	45.3502	-1.51771	-1.5175	-9.45699	1	-0.154272	15.1719	0.0000000E+000	0.014351	-16.6894
2	0	0	0	0	45.617	-1.53106	-1.53082	-9.65893	1	-0.15682	15.425	0.0000000E+000	0.0147861	-16.9559
2	0	0	1	0	45.8836	-1.54439	-1.54408	-9.82334	1	-0.159415	15.6298	0.0000000E+000	0.015168	-17.1738
2	0	0	1	0	46.1504	-1.55772	-1.55746	-10.0358	1	-0.162066	15.8954	0.0000000E+000	0.0156303	-17.4529
2	0	0	0	0	46.417	-1.57105	-1.57077	-10.2509	1	-0.164769	16.1693	0.0000000E+000	0.0161018	-17.74
2	0	0	1	0	46.6836	-1.58439	-1.58414	-10.4925	1	-0.167536	16.4776	0.0000000E+000	0.0166216	-18.0617
2	0	0	1	0	46.9504	-1.59773	-1.59748	-10.719	1	-0.170366	16.7625	0.0000000E+000	0.0171234	-18.36
2	0	0	0	0	47.217	-1.61105	-1.61073	-10.9503	1	-0.173255	17.0568	0.0000000E+000	0.017638	-18.6675
2	0	0	0	0	47.4838	-1.62439	-1.62404	-11.2361	1	-0.176214	17.4226	0.0000000E+000	0.0182479	-19.0467
2	0	0	1	0	47.7504	-1.63773	-1.63738	-11.4982	1	-0.179243	17.7516	0.0000000E+000	0.018827	-19.389
2	0	0	0	0	48.017	-1.65106	-1.65067	-11.8036	1	-0.182349	18.1413	0.0000000E+000	0.0194837	-19.792
2	0	0	0	0	48.2838	-1.66439	-1.66397	-12.1113	1	-0.185541	18.5313	0.0000000E+000	0.020153	-20.1953
2	0	0	1	0	48.5504	-1.67772	-1.67731	-12.4162	1	-0.188812	18.9213	0.0000000E+000	0.0208258	-20.5986
2	0	0	1	0	48.8172	-1.69107	-1.69065	-12.8339	1	-0.192182	19.4611	0.0000000E+000	0.0216977	-21.1518
2	0	0	0	0	49.0838	-1.70439	-1.70407	-13.1178	1	-0.195644	19.8133	0.0000000E+000	0.0223537	-21.5173
2	0	0	0	0	49.3506	-1.71773	-1.71733	-13.4907	1	-0.199195	20.2903	0.0000000E+000	0.023168	-22.0076
2	0	0	1	0	49.6172	-1.73107	-1.73062	-13.8438	1	-0.202841	20.7354	0.0000000E+000	0.0239583	-22.466
2	0	0	0	0	49.8838	-1.7444	-1.74403	-14.2666	1	-0.206587	21.2758	0.0000000E+000	0.0248813	-23.0198
2	0	0	0	0	50.1506	-1.75773	-1.75734	-14.6552	1	-0.210441	21.7737	0.0000000E+000	0.0257541	-23.5311
2	0	0	1	0	50.4172	-1.77106	-1.77073	-15.0958	1	-0.214413	22.3369	0.0000000E+000	0.0267306	-24.1077
2	0	0	1	0	50.684	-1.78441	-1.78398	-15.5124	1	-0.218498	22.8567	0.0000000E+000	0.0276739	-24.6407
2	0	0	0	0	50.9506	-1.79774	-1.79728	-15.9746	1	-0.222693	23.4451	0.0000000E+000	0.0287108	-25.2424
2	1	0	1	0	51.0976	-1.79474	-1.79486	-15.8186	1	-0.225037	23.2033	0.0000000E+000	0.0283921	-24.9981
2	1	0	1	0	51.3644	-1.7814	-1.78158	-15.2929	1	-0.22919	22.4534	0.0000000E+000	0.0272455	-24.235
2	1	0	0	0	51.631	-1.76807	-1.76815	-14.739	1	-0.233192	21.6755	0.0000000E+000	0.0260609	-23.4437
2	1	0	1	0	51.8977	-1.75473	-1.75479	-14.2767	1	-0.237059	21.0192	0.0000000E+000	0.0250527	-22.774
2	1	0	1	0	52.1644	-1.7414	-1.74161	-13.8533	1	-0.24081	20.4327	0.0000000E+000	0.024127	-22.1743
2	1	0	0	0	52.431	-1.72807	-1.72802	-13.42	1	-0.244446	19.8301	0.0000000E+000	0.0231901	-21.5582
2	1	0	0	0	52.6978	-1.71473	-1.71478	-12.9742	1	-0.247966	19.2158	0.0000000E+000	0.0222479	-20.9306
2	1	0	1	0	52.9644	-1.7014	-1.70143	-12.5278	1	-0.251366	18.6076	0.0000000E+000	0.0213151	-20.309
2	1	0	1	0	53.2312	-1.68806	-1.68807	-12.1472	1	-0.254657	18.082	0.0000000E+000	0.0205053	-19.7701
2	1	0	0	0	53.4978	-1.67473	-1.67476	-11.7597	1	-0.257846	17.5532	0.0000000E+000	0.0196947	-19.228
2	1	0	1	0	53.7644	-1.6614	-1.66146	-11.356	1	-0.260935	17.0041	0.0000000E+000	0.0188675	-18.6656
2	1	0	1	0	54.0312	-1.64806	-1.64803	-10.9919	1	-0.263916	16.5112	0.0000000E+000	0.0181149	-18.1592
2	1	0	0	0	54.2978	-1.63473	-1.63459	-10.6757	1	-0.2668	16.088	0.0000000E+000	0.0174504	-17.7226
2	1	0	0	0	54.5646	-1.62139	-1.62137	-10.2869	1	-0.269598	15.5587	0.0000000E+000	0.0166788	-17.1801
2	1	0	1	0	54.8312	-1.60806	-1.60803	-9.94684	1	-0.272296	15.0974	0.0000000E+000	0.0159948	-16.7054
2	1	0	1	0	55.098	-1.59472	-1.59467	-9.6255	1	-0.274907	14.6697	0.0000000E+000	0.0153495	-16.2644
2	1	0	0	0	55.3646	-1.58139	-1.58134	-9.32151	1	-0.27743	14.2591	0.0000000E+000	0.0147405	-15.8405
2	1	0	1	0	55.6312	-1.56806	-1.56803	-8.99069	1	-0.279869	13.8125	0.0000000E+000	0.0140977	-15.3805
2	1	0	1	0	55.898	-1.55472	-1.55469	-8.67092	1	-0.282224	13.3864	0.0000000E+000	0.0134806	-14.941
2	1	0	0	0	56.1646	-1.54139	-1.54134	-8.37954	1	-0.284496	12.9906	0.0000000E+000	0.0129157	-14.5319
2	1	0	0	0	56.4314	-1.52805	-1.52798	-8.10675	1	-0.286696	12.6238	0.0000000E+000	0.012387	-14.1517
2	1	0	1	0	56.698	-1.51472	-1.51468	-7.81474	1	-0.288817	12.2288	0.0000000E+000	0.0118369	-13.7434
2	1	0	0	0	56.9647	-1.50138	-1.50134	-7.52784	1	-0.29086	11.8418	0.0000000E+000	0.0113019	-13.3431
2	1	0	0	0	57.2314	-1.48805	-1.48804	-7.25708	1	-0.292832	11.4769	0.0000000E+000	0.0107988	-12.9649
2	1	0	1	0	57.498	-1.47472	-1.47467	-7.01872	1	-0.294733	11.1527	0.0000000E+000	0.0103503	-12.6273
2	1	0	1	0	57.7648	-1.46138	-1.46134	-6.77112	1	-0.29657	10.8163	0.0000000E+000	0.00989494	-12.2776
2	1	0	0	0	58.0314	-1.44805	-1.44798	-6.51437	1	-0.298338	10.4675	0.0000000E+000	0.00943268	-11.9155
2	1	0	0	0	58.2982	-1.43471	-1.4347	-6.27855	1	-0.300045	10.1505	0.0000000E+000	0.00900782	-11.5852
2	1	0	1	0	58.5648	-1.42138	-1.42135	-6.06451	1	-0.30169	9.85903	0.0000000E+000	0.00861979	-11.2804
2	1	0	0	0	58.8314	-1.40805	-1.40802	-5.86362	1	-0.303279	9.58658	0.0000000E+000	0.00825612	-10.9946
2	1	0	0	0	59.0982	-1.39471	-1.39468	-5.65569	1	-0.304812	9.30494	0.0000000E+000	0.00788786	-10.6996
2	1	0	1	0	59.3648	-1.38138	-1.38136	-5.45192	1	-0.30629	9.02876	0.0000000E+000	0.00753108	-10.4101
2	1	0	1	0	59.6316	-1.36804	-1.36796	-5.26444	1	-0.307717	8.77399	0.0000000E+000	0.00720155	-10.1419
2	1	0	0	0	59.8982	-1.35471	-1.35462	-5.08569	1	-0.309094	8.5293	0.0000000E+000	0.00688917	-9.88392
2	1	0	0	0	60.165	-1.34137	-1.34132	-4.9137	1	-0.310427	8.29525	0.0000000E+000	0.00659082	-9.63656
2	1	0	1	0	60.4316	-1.32804	-1.32798	-4.74426	1	-0.311713	8.06294	0.0000000E+000	0.0063003	-9.39092
2	1	0	0	0	60.6982	-1.31471	-1.31464	-4.56715	1	-0.312954	7.82001	0.0000000E+000	0.00600418	-9.13466
2	1	0	0	0	60.965	-1.30137	-1.30127	-4.41869	1	-0.314151	7.61829	0.0000000E+000	0.00574989	-8.91955
2	1	0	1	0	61.2316	-1.28804	-1.28795	-4.27241	1	-0.31531	7.41797	0.0000000E+000	0.00550265	-8.70592
2	1	0	1	0	61.4984	-1.2747	-1.27463	-4.1188	1	-0.316428	7.20691	0.0000000E+000	0.00524993	-8.48154
2	1	0	0	0	61.765	-1.26137	-1.26131	-3.97154	1	-0.317506	7.00616	0.0000000E+000	0.00500933	-8.26747
2	1	0	0	0	62.0318	-1.24803	-1.24795	-3.84201	1	-0.318547	6.8288	0.0000000E+000	0.00479464	-8.07675
2	1	0	1	0	62.2984	-1.2347	-1.23459	-3.70587	1	-0.319554	6.6409	0.0000000E+000	0.00457523	-7.87549
2	1	0	0	0	62.565	-1.22137	-1.2213	-3.58217	1	-0.320525	6.47071	0.0000000E+000	0.00437491	-7.69201
2	1	0	0	0	62.8318	-1.20803	-1.20796	-3.45447	1	-0.321463	6.29527	0.0000000E+000	0.00417285	-7.50323
2	1	0	1	0	63.0984	-1.1947	-1.19461	-3.34062	1	-0.322369	6.13853	0.0000000E+000	0.00399076	-7.33315
2	1	0	1	0	63.3652	-1.18136	-1.18129	-3.22488	1	-0.323244	5.97798	0.0000000E+000	0.00380952	-7.15928
2	1	0	0	0	63.6318	-1.16803	-1.16793	-3.10458	1	-0.324086	5.81219	0.0000000E+000	0.00362593	-6.98012
2	1	0	1	0	63.8984	-1.1547	-1.1546	-2.99979	1	-0.324899	5.6679	0.0000000E+000	0.00346357	-6.8225
2	1	0	1	0	64.1652	-1.14136	-1.14126	-2.89748	1	-0.325685	5.52601	0.0000000E+000	0.00330678	-6.66727
2	1	0	0	0	64.4318	-1.12803	-1.12793	-2.79946	1	-0.326444	5.38978	0.0000000E+000	0.0031576	-6.51771
2	1	0	0	0	64.6986	-1.11469	-1.11457	-2.71401	1	-0.327179	5.27192	0.0000000E+000	0.00302497	-6.38649
2	1	0	1	0	64.9652	-1.10136	-1.10125	-2.625	1	-0.32789	5.14855	0.0000000E+000	0.00289079	-6.24981
2	1	0	1	0	65.232	-1.08802	-1.08793	-2.53335	1	-0.328579	5.02068	0.0000000E+000	0.00275611	-6.10861
2	1	0	0	0	65.4986	-1.07469	-1.0746	-2.44746	1	-0.329242	4.90134	0.0000000E+000	0.00263003	-5.97593
2	1	0	1	0	65.7652	-1.06136	-1.06124	-2.37791	1	-0.329885	4.80476	0.0000000E+000	0.00252354	-5.866
2	1	0	1	0	66.032	-1.04802	-1.04794	-2.291	1	-0.330506	4.68366	0.0000000E+000	0.00240083	-5.7316
2	1	0	0	0	66.2986	-1.03469	-1.03459	-2.21952	1	-0.331107	4.58396	0.0000000E+000	0.00229629	-5.61855
2	1	0	0	0	66.5654	-1.02135	-1.02121	-2.13982	1	-0.331689	4.47213	0.0000000E+000	0.0021852	-5.49334
2	1	0	1	0	66.832	-1.00802	-1.00785	-2.05065	1	-0.332247	4.34693	0.0000000E+000	0.00206675	-5.35478
2	1	0	0	0	67.0987	-0.994683	-0.994522	-1.97952	1	-0.332784	4.24755	0.0000000E+000	0.00196867	-5.24207
2	1	0	0	0	67.3654	-0.981349	-0.981201	-1.90595	1	-0.333301	4.14425	0.0000000E+000	0.00187012	-5.12545
2	1	0	1	0	67.632	-0.968018	-0.967851	-1.84547	1	-0.333802	4.05945	0.0000000E+000	0.00178614	-5.0273
2	1	0	1	0	67.8988	-0.954677	-0.95453	-1.76507	1	-0.334282	3.94542	0.0000000E+000	0.00168482	-4.89995
2	1	0	0	0	68.1654	-0.94135	-0.941206	-1.69181	1	-0.334742	3.84196	0.0000000E+000	0.00159235	-4.78316
2	1	0	0	0	68.4322	-0.928009	-0.927886	-1.61335	1	-0.335183	3.73136	0.0000000E+000	0.001497	-4.65924
2	1	0	1	0	68.6988	-0.914678	-0.914529	-1.54325	1	-0.335604	3.63101	0.0000000E+000	0.00141135	-4.54554
2	1	0	0	0	68.9654	-0.901347	-0.901161	-1.47842	1	-0.336005	3.53783	0.0000000E+000	0.00133229	-4.439
2	1	0	0	0	69.2322	-0.88801	-0.887812	-1.42739	1	-0.336393	3.46557	0.0000000E+000	0.00126725	-4.35338
2	1	0	1	0	69.4988	-0.874679	-0.874516	-1.35471	1	-0.336763	3.36179	0.0000000E+000	0.00118472	-4.23631
2	1	0	1	0	69.7656	-0.861338	-0.861171	-1.30065	1	-0.337116	3.28393	0.0000000E+000	0.00112008	-4.1451
2	1	0	0	0	70.0322	-0.848007	-0.847833	-1.24438	1	-0.337456	3.20292	0.0000000E+000	0.00105503	-4.05076
2	1	0	0	0	70.299	-0.834669	-0.834494	-1.1893	1	-0.337781	3.12363	0.0000000E+000	0.000992462	-3.95813
2	1	0	1	0	70.5656	-0.821338	-0.821155	-1.14839	1	-0.338091	3.0652	0.0000000E+000	0.000943008	-3.88635
2	1	0	0	0	70.8322	-0.808008	-0.807844	-1.0941	1	-0.33839	2.98638	0.0000000E+000	0.000883861	-3.79423
2	1	0	0	0	71.099	-0.794667	-0.794505	-1.0378	1	-0.338674	2.90397	0.0000000E+000	0.00082454	-3.69848
2	1	0	1	0	71.3656	-0.781339	-0.78115	-0.991184	1	-0.338944	2.83618	0.0000000E+000	0.000774264	-3.61733
2	1	0	1	0	71.6324	-0.767998	-0.767774	-0.946733	1	-0.339201	2.7709	0.0000000E+000	0.000726877	-3.53867
2	1	0	0	0	71.899	-0.754667	-0.754502	-0.896005	1	-0.339447	2.69666	0.0000000E+000	0.000676038	-3.45116
2	1	0	1	0	72.1657	-0.741334	-0.741145	-0.84145	1	-0.339677	2.6155	0.0000000E+000	0.000623637	-3.35665
2	1	0	1	0	72.4324	-0.727999	-0.727825	-0.791418	1	-0.339895	2.54144	0.0000000E+000	0.000576014	-3.26926
2	1	0	0	0	72.699	-0.714668	-0.714463	-0.746102	1	-0.340099	2.47354	0.0000000E+000	0.000533062	-3.188
2	1	0	0	0	72.9658	-0.701327	-0.70115	-0.698166	1	-0.340291	2.40116	0.0000000E+000	0.000489519	-3.10231
2	1	0	1	0	73.2324	-0.688	-0.687867	-0.64521	1	-0.34047	2.32101	0.0000000E+000	0.000443819	-3.00888
2	1	0	1	0	73.4992	-0.674659	-0.674459	-0.59203	1	-0.340635	2.23949	0.0000000E+000	0.0003993	-2.91394
2	1	0	0	0	73.7658	-0.661328	-0.661125	-0.54456	1	-0.340786	2.16749	0.0000000E+000	0.000360022	-2.82861
2	1	0	1	0	74.0324	-0.647997	-0.647819	-0.490729	1	-0.340923	2.08333	0.0000000E+000	0.000317904	-2.73115
2	1	0	1	0	74.2992	-0.634659	-0.634464	-0.442746	1	-0.341047	2.00802	0.0000000E+000	0.000280906	-2.64248
2	1	0	0	0	74.5658	-0.621329	-0.621104	-0.391329	1	-0.341158	1.92656	0.0000000E+000	0.000243056	-2.54767
2	1	0	0	0	74.8326	-0.607988	-0.60779	-0.344651	1	-0.341256	1.85181	0.0000000E+000	0.000209476	-2.4596
2	1	0	1	0	75.0992	-0.594657	-0.59444	-0.300946	1	-0.341341	1.78087	0.0000000E+000	0.000178894	-2.37531
2	1	0	1	0	75.366	-0.581319	-0.581139	-0.25184	1	-0.341414	1.70011	0.0000000E+000	0.000146354	-2.28125
2	1	0	0	0	75.6326	-0.567988	-0.567813	-0.205491	1	-0.341475	1.62247	0.0000000E+000	0.00011668	-2.19028
2	1	0	1	0	75.8992	-0.554658	-0.554453	-0.157309	1	-0.341523	1.53999	0.0000000E+000	8.72204e-05	-2.09444
2	1	0	1	0	76.166	-0.541317	-0.541113	-0.1128	1	-0.341558	1.46083	0.0000000E+000	6.10377e-05	-2.00195
2	1	0	0	0	76.4326	-0.527989	-0.5278	-0.0638756	1	-0.341581	1.37342	0.0000000E+000	3.37135e-05	-1.90122
2	1	0	0	0	76.6994	-0.514648	-0.514503	-0.0113362	1	-0.341591	1.27586	0.0000000E+000	5.83249e-06	-1.79036
2	1	0	1	0	76.966	-0.501317	-0.501123	0.0440719	1	-0.341586	1.16744	0.0000000E+000	-2.20854e-05	-1.66856
2	1	0	0	0	77.2327	-0.487984	-0.487827	0.095679	1	-0.341567	1.06122	0.0000000E+000	-4.66748e-05	-1.54905
2	1	0	0	0	77.4994	-0.474649	-0.474444	0.149963	1	-0.341533	0.94464	0.0000000E+000	-7.11489e-05	-1.41908
2	1	0	1	0	77.766	-0.461318	-0.461164	0.204113	1	-0.341485	0.819944	0.0000000E+000	-9.41293e-05	-1.28111
2	1	0	1	0	78.0328	-0.447977	-0.447801	0.258493	1	-0.341423	0.685384	0.0000000E+000	-0.000115753	-1.13318
2	1	0	0	0	78.2994	-0.43465	-0.434455	0.312807	1	-0.341347	0.539211	0.0000000E+000	-0.000135901	-0.973666
2	1	0	0	0	78.5662	-0.421309	-0.421162	0.364176	1	-0.341256	0.389165	0.0000000E+000	-0.000153377	-0.810327
2	1	0	1	0	78.8328	-0.407978	-0.407861	0.411689	1	-0.341152	0.243951	0.0000000E+000	-0.000167912	-0.651813
2	1	0	0	0	79.0994	-0.394647	-0.39451	0.471064	1	-0.341034	0.0843684	0.0000000E+000	-0.000185839	-0.478878
2	1	0	0	0	79.3662	-0.381309	-0.381187	0.522348	1	-0.340901	-0.0556313	0.0000000E+000	-0.000199112	-0.325555
2	1	0	1	0	79.6328	-0.367979	-0.3678	0.572745	1	-0.340754	-0.186351	0.0000000E+000	-0.000210655	-0.181449
2	1	0	1	0	79.8996	-0.354638	-0.354477	0.62693	1	-0.340594	-0.315712	0.0000000E+000	-0.000222232	-0.0387651
2	1	0	0	0	80.1662	-0.341307	-0.34115	0.677691	1	-0.340419	-0.433469	0.0000000E+000	-0.000231194	0.0923188
2	1	0	0	0	80.433	-0.327969	-0.327761	0.724667	1	-0.340232	-0.539969	0.0000000E+000	-0.000237518	0.212208
2	1	0	1	0	80.6996	-0.314638	-0.314411	0.765138	1	-0.340033	-0.630668	0.0000000E+000	-0.000240568	0.316257
2	1	0	0	0	80.9662	-0.301307	-0.301063	0.808048	1	-0.339822	-0.719478	0.0000000E+000	-0.000243274	0.418415
2	1	0	0	0	81.233	-0.287967	-0.287747	0.847264	1	-0.339601	-0.797395	0.0000000E+000	-0.000243797	0.509649
2	1	0	1	0	81.4996	-0.274639	-0.274406	0.88424	1	-0.33937	-0.866039	0.0000000E+000	-0.000242641	0.591633
2	1	0	1	0	81.7664	-0.261298	-0.261033	0.912557	1	-0.339129	-0.917069	0.0000000E+000	-0.000238207	0.656036
2	1	0	0	0	82.033	-0.247967	-0.247698	0.937636	1	-0.338882	-0.957303	0.0000000E+000	-0.00023225	0.709606
2	1	0	0	0	82.2998	-0.23463	-0.234355	0.963153	1	-0.338628	-0.994827	0.0000000E+000	-0.00022572	0.760472
2	1	0	1	0	82.5664	-0.221299	-0.221046	0.986394	1	-0.338367	-1.02875	0.0000000E+000	-0.000218038	0.807702
2	1	0	0	0	82.833	-0.207968	-0.207711	1.00024	1	-0.338102	-1.04856	0.0000000E+000	-0.000207761	0.840851
2	1	0	0	0	83.0998	-0.194627	-0.194347	1.0162	1	-0.337833	-1.07256	0.0000000E+000	-0.000197496	0.878214
2	1	0	1	0	83.3664	-0.1813	-0.181009	1.02496	1	-0.33756	-1.08572	0.0000000E+000	-0.000185526	0.904712
2	1	0	1	0	83.6332	-0.167959	-0.167688	1.03133	1	-0.337285	-1.09562	0.0000000E+000	-0.000172942	0.927934
2	1	0	0	0	83.8998	-0.154628	-0.154365	1.03415	1	-0.33701	-1.10106	0.0000000E+000	-0.000159636	0.94669
2	1	0	1	0	84.1664	-0.141297	-0.141005	1.03917	1	-0.336733	-1.11046	0.0000000E+000	-0.000146528	0.969452
2	1	0	1	0	84.4332	-0.127959	-0.127649	1.04074	1	-0.336455	-1.11441	0.0000000E+000	-0.000132849	0.986757
2	1	0	0	0	84.6998	-0.114628	-0.114349	1.03996	1	-0.336177	-1.11443	0.0000000E+000	-0.000118918	1.00008
2	1	0	0	0	84.9666	-0.101288	-0.101025	1.03874	1	-0.335899	-1.11431	0.0000000E+000	-0.000104939	1.01328
2	1	0	1	0	85.2332	-0.0879567	-0.0876788	1.03365	1	-0.335623	-1.10846	0.0000000E+000	-9.06294e-05	1.02078
2	1	0	1	0	85.5	-0.0746192	-0.0743589	1.02985	1	-0.335347	-1.10521	0.0000000E+000	-7.65782e-05	1.03085
2	1	0	0	0	85.7666	-0.0612883	-0.0610145	1.02853	1	-0.335072	-1.10542	0.0000000E+000	-6.27552e-05	1.04441
2	1	0	1	0	86.0332	-0.0479574	-0.0477111	1.02526	1	-0.334798	-1.10226	0.0000000E+000	-4.89163e-05	1.05454
2	1	0	1	0	86.3	-0.0346177	-0.0343272	1.02711	1	-0.334524	-1.10763	0.0000000E+000	-3.5258e-05	1.0733
2	1	0	0	0	86.5666	-0.021289	-0.0209977	1.02405	1	-0.33425	-1.10525	0.0000000E+000	-2.15027e-05	1.08426
2	1	0	0	0	86.8334	-0.00794812	-0.00768227	1.02068	1	-0.333977	-1.10273	0.0000000E+000	-7.8411e-06	1.09504
2	1	0	1	0	87.1	0.00538276	0.0056861	1.0245	1	-0.333703	-1.11098	0.0000000E+000	5.82542e-06	1.11667
2	1	0	1	0	87.3668	0.0187203	0.0190573	1.01675	1	-0.333431	-1.10141	0.0000000E+000	1.93765e-05	1.12047
2	1	0	0	0	87.6334	0.0320512	0.0323608	1.02137	1	-0.333159	-1.11117	0.0000000E+000	3.30525e-05	1.14353
2	1	0	1	0	87.9	0.045382	0.0457128	1.02212	1	-0.332886	-1.11546	0.0000000E+000	4.67242e-05	1.16118
2	1	0	1	0	88.1668	0.0587229	0.0590598	1.0267	1	-0.332612	-1.12513	0.0000000E+000	6.06369e-05	1.18419
2	1	0	0	0	88.4334	0.0720505	0.072378	1.03266	1	-0.332338	-1.13762	0.0000000E+000	7.47419e-05	1.21
2	1	0	0	0	88.7002	0.0853913	0.0857153	1.04138	1	-0.332061	-1.15475	0.0000000E+000	8.92622e-05	1.24047
2	1	0	1	0	88.9668	0.0987222	0.0990376	1.04565	1	-0.331782	-1.16504	0.0000000E+000	0.000103559	1.26407
2	1	0	0	0	89.2334	0.112053	0.112396	1.05667	1	-0.331501	-1.18674	0.0000000E+000	0.000118766	1.29913
2	1	0	0	0	89.5002	0.125391	0.125687	1.05658	1	-0.331219	-1.18963	0.0000000E+000	0.000132799	1.31532
2	1	0	1	0	89.7668	0.138721	0.139038	1.06987	1	-0.330935	-1.21425	0.0000000E+000	0.000148753	1.35328
2	1	0	1	0	90.0336	0.152062	0.152388	1.08207	1	-0.330648	-1.2375	0.0000000E+000	0.000164895	1.38989
2	1	0	0	0	90.3002	0.165393	0.165708	1.09124	1	-0.330358	-1.25609	0.0000000E+000	0.000180828	1.4218
2	1	0	0	0	90.567	0.178731	0.179014	1.10048	1	-0.330065	-1.27519	0.0000000E+000	0.000197001	1.4542
2	1	0	1	0	90.8336	0.192062	0.192335	1.12053	1	-0.32977	-1.31131	0.0000000E+000	0.000215516	1.50365
2	1	0	0	0	91.1002	0.205393	0.205704	1.12857	1	-0.32947	-1.32884	0.0000000E+000	0.000232151	1.53454
2	1	0	0	0	91.367	0.218732	0.219066	1.14235	1	-0.329166	-1.35619	0.0000000E+000	0.000250249	1.57526
2	1	0	1	0	91.6336	0.232061	0.232349	1.15979	1	-0.328859	-1.38914	0.0000000E+000	0.000269476	1.62149
2	1	0	1	0	91.9004	0.245402	0.245702	1.18046	1	-0.328546	-1.4279	0.0000000E+000	0.00029004	1.6736
2	1	0	0	0	92.167	0.258733	0.259037	1.19795	1	-0.328229	-1.46179	0.0000000E+000	0.000310313	1.72082
2	1	0	0	0	92.4338	0.27207	0.272416	1.22118	1	-0.327905	-1.50534	0.0000000E+000	0.000332668	1.77776
2	1	0	1	0	92.7004	0.285401	0.285684	1.24628	1	-0.327577	-1.55237	0.0000000E+000	0.000356043	1.83805
2	1	0	0	0	92.967	0.298732	0.299018	1.27119	1	-0.32724	-1.59896	0.0000000E+000	0.000380108	1.89798
2	1	0	0	0	93.2338	0.312073	0.312368	1.30333	1	-0.326897	-1.65859	0.0000000E+000	0.000407118	1.97095
2	1	0	1	0	93.5004	0.3254	0.325721	1.34098	1	-0.326544	-1.72833	0.0000000E+000	0.000436786	2.05405
2	1	0	1	0	93.7672	0.338741	0.339034	1.36924	1	-0.326183	-1.7824	0.0000000E+000	0.00046422	2.12143
2	1	0	0	0	94.0338	0.352072	0.352384	1.41093	1	-0.325812	-1.85969	0.0000000E+000	0.000497188	2.21208
2	1	0	1	0	94.3004	0.365403	0.365717	1.4543	1	-0.325429	-1.94084	0.0000000E+000	0.000531862	2.30656
2	1	0	1	0	94.5672	0.378741	0.379061	1.5013	1	-0.325035	-2.0286	0.0000000E+000	0.000569085	2.40766
2	1	0	0	0	94.8338	0.392071	0.392407	1.55024	1	-0.324628	-2.1215	0.0000000E+000	0.000608327	2.51391
2	1	0	0	0	95.1006	0.405412	0.405747	1.60086	1	-0.324207	-2.21785	0.0000000E+000	0.000649545	2.6236
2	1	0	1	0	95.3672	0.418743	0.419061	1.65445	1	-0.323773	-2.3209	0.0000000E+000	0.000693315	2.73996
2	1	0	1	0	95.634	0.432081	0.432422	1.7141	1	-0.323323	-2.43568	0.0000000E+000	0.000741216	2.8681
2	1	0	0	0	95.9006	0.445412	0.445736	1.77707	1	-0.322858	-2.55835	0.0000000E+000	0.000792102	3.00409
2	1	0	1	0	96.1672	0.458742	0.459059	1.83565	1	-0.322375	-2.6756	0.0000000E+000	0.000842672	3.13466
2	1	0	1	0	96.434	0.472082	0.472396	1.89723	1	-0.321877	-2.80076	0.0000000E+000	0.000896241	3.27316
2	1	0	0	0	96.7006	0.485411	0.485715	1.96294	1	-0.321362	-2.93533	0.0000000E+000	0.000953428	3.42104
2	1	0	0	0	96.9674	0.498752	0.499086	2.03133	1	-0.320829	-3.07876	0.0000000E+000	0.00101381	3.57785
2	1	0	1	0	97.234	0.512083	0.51237	2.10384	1	-0.320278	-3.23217	0.0000000E+000	0.00107794	3.74455
2	1	0	1	0	97.5008	0.52542	0.525702	2.1676	1	-0.319708	-3.3738	0.0000000E+000	0.00113951	3.8995
2	1	0	0	0	97.7674	0.538751	0.539066	2.24432	1	-0.319119	-3.5425	0.0000000E+000	0.00120984	4.08157
2	1	0	1	0	98.034	0.552082	0.552377	2.31537	1	-0.318512	-3.70534	0.0000000E+000	0.00127896	4.25772
2	1	0	1	0	98.3008	0.565423	0.565744	2.38598	1	-0.317884	-3.87291	0.0000000E+000	0.00134986	4.43866
2	1	0	0	0	98.5674	0.57875	0.579069	2.4608	1	-0.317237	-4.05275	0.0000000E+000	0.00142497	4.63182
2	1	0	0	0	98.8342	0.592091	0.592372	2.53976	1	-0.316569	-4.24349	0.0000000E+000	0.00150448	4.83587
2	1	0	1	0	99.1008	0.605422	0.605691	2.61509	1	-0.315882	-4.43125	0.0000000E+000	0.00158394	5.03694
2	1	0	0	0	99.3674	0.618753	0.619032	2.69283	1	-0.315173	-4.62813	0.0000000E+000	0.00166695	5.24716
2	1	0	0	0	99.6342	0.63209	0.63239	2.76641	1	-0.314443	-4.81993	0.0000000E+000	0.00174945	5.45232
2	1	0	1	0	99.9008	0.645421	0.645683	2.84968	1	-0.313694	-5.02885	0.0000000E+000	0.00183999	5.67453
2	1	0	1	0	100.168	0.658762	0.659034	2.92666	1	-0.312924	-5.23004	0.0000000E+000	0.00192877	5.88908
2	1	0	0	0	100.434	0.672093	0.672382	3.01192	1	-0.312132	-5.4512	0.0000000E+000	0.00202516	6.12359
2	1	0	0	0	100.701	0.685431	0.685702	3.10004	1	-0.311316	-5.68131	0.0000000E+000	0.0021257	6.36701
2	1	0	1	0	100.968	0.698761	0.699026	3.188	1	-0.310477	-5.9058	0.0000000E+000	0.00222849	6.60482
2	1	0	0	0	101.234	0.712092	0.712368	3.26547	1	-0.309616	-6.10795	0.0000000E+000	0.00232622	6.82031
2	1	0	0	0	101.501	0.725432	0.72574	3.33956	1	-0.308735	-6.30004	0.0000000E+000	0.00242365	7.02578
2	1	0	1	0	101.768	0.738761	0.73907	3.41843	1	-0.307835	-6.50128	0.0000000E+000	0.00252646	7.24034
2	1	0	1	0	102.034	0.752102	0.752371	3.49224	1	-0.306911	-6.6934	0.0000000E+000	0.00262746	7.44577
2	1	0	0	0	102.301	0.765433	0.765698	3.58245	1	-0.305968	-6.91587	0.0000000E+000	0.00274307	7.68157
2	1	0	0	0	102.568	0.77877	0.779026	3.65192	1	-0.305003	-7.10233	0.0000000E+000	0.00284494	7.88136
2	1	0	1	0	102.834	0.792101	0.792374	3.74028	1	-0.304017	-7.32675	0.0000000E+000	0.0029637	8.11913
2	1	0	0	0	103.101	0.805432	0.80568	3.817	1	-0.303009	-7.53369	0.0000000E+000	0.00307528	8.33937
2	1	0	0	0	103.368	0.818773	0.819045	3.8886	1	-0.30198	-7.73438	0.0000000E+000	0.00318494	8.55342
2	1	0	1	0	103.634	0.8321	0.832362	3.9733	1	-0.300932	-7.96402	0.0000000E+000	0.00330722	8.79638
2	1	0	1	0	103.901	0.845441	0.845705	4.06665	1	-0.299859	-8.21616	0.0000000E+000	0.00343918	9.06186
2	1	0	0	0	104.168	0.858772	0.85903	4.13946	1	-0.298765	-8.43187	0.0000000E+000	0.00355592	9.2909
2	1	0	1	0	104.434	0.872103	0.87234	4.23087	1	-0.297648	-8.68853	0.0000000E+000	0.00369076	9.56087
2	1	0	1	0	104.701	0.88544	0.885618	4.32206	1	-0.296507	-8.94853	0.0000000E+000	0.0038277	9.83414
2	1	0	0	0	104.968	0.898771	0.898987	4.39823	1	-0.295346	-9.18451	0.0000000E+000	0.00395395	10.0835
2	1	0	0	0	105.235	0.912112	0.912357	4.50275	1	-0.294157	-9.46958	0.0000000E+000	0.00410811	10.3819
2	1	0	1	0	105.501	0.925443	0.925673	4.6214	1	-0.292941	-9.80401	0.0000000E+000	0.0042779	10.7297
2	1	0	1	0	105.768	0.938781	0.938934	4.69364	1	-0.291701	-10.0473	0.0000000E+000	0.00440702	10.9863
2	1	0	0	0	106.035	0.952111	0.952291	4.80077	1	-0.290436	-10.3688	0.0000000E+000	0.00457173	11.3211
2	1	0	1	0	106.301	0.965442	0.965642	4.91458	1	-0.289141	-10.7092	0.0000000E+000	0.00474573	11.6748
2	1	0	1	0	106.568	0.978782	0.978981	5.03017	1	-0.287814	-11.034	0.0000000E+000	0.00492445	12.013
2	1	0	0	0	106.835	0.992111	0.992266	5.14809	1	-0.286456	-11.3895	0.0000000E+000	0.00510828	12.3818
2	1	0	0	0	107.101	1.00545	1.00559	5.26439	1	-0.285067	-11.7487	0.0000000E+000	0.00529379	12.7543
2	1	0	1	0	107.368	1.01878	1.01894	5.40744	1	-0.283644	-12.1726	0.0000000E+000	0.00550986	13.1915
2	1	0	1	0	107.635	1.03212	1.03233	5.54477	1	-0.282183	-12.5981	0.0000000E+000	0.00572405	13.6304
2	1	0	0	0	107.901	1.04545	1.04564	5.69571	1	-0.280684	-13.056	0.0000000E+000	0.00595568	14.1017
2	1	0	1	0	108.168	1.05878	1.05891	5.86666	1	-0.279142	-13.5595	0.0000000E+000	0.00621226	14.6184
2	1	0	1	0	108.435	1.07212	1.07226	6.05195	1	-0.277552	-14.0988	0.0000000E+000	0.00648927	15.1711
2	1	0	0	0	108.701	1.08545	1.08563	6.23893	1	-0.275914	-14.6462	0.0000000E+000	0.00677318	15.7318
2	1	0	0	0	108.968	1.09879	1.09894	6.44288	1	-0.274221	-15.2084	0.0000000E+000	0.00708033	16.3073
2	1	0	1	0	109.235	1.11212	1.11225	6.6518	1	-0.272472	-15.7847	0.0000000E+000	0.00739849	16.897
2	1	0	0	0	109.501	1.12545	1.12555	6.87072	1	-0.27067	-16.3747	0.0000000E+000	0.00773333	17.5002
2	1	0	0	0	109.768	1.13879	1.13889	7.11037	1	-0.268805	-16.9834	0.0000000E+000	0.0080979	18.1223
2	1	0	1	0	110.035	1.15212	1.15235	7.32066	1	-0.266881	-17.5271	0.0000000E+000	0.00843593	18.6794
2	1	0	1	0	110.302	1.16546	1.16563	7.53864	1	-0.264899	-18.0805	0.0000000E+000	0.00878729	19.2461
2	1	0	0	0	110.568	1.17879	1.17884	7.76184	1	-0.26286	-18.6364	0.0000000E+000	0.00914996	19.8152
2	1	0	0	0	110.835	1.19213	1.19238	8.00003	1	-0.260755	-19.2207	0.0000000E+000	0.00953905	20.4131
2	1	0	1	0	111.102	1.20546	1.20568	8.19346	1	-0.258597	-19.6965	0.0000000E+000	0.00987866	20.9022
2	1	0	0	0	111.368	1.21879	1.21893	8.40691	1	-0.256385	-20.2135	0.0000000E+000	0.0102474	21.4324
2	1	0	0	0	111.635	1.23213	1.23227	8.61081	1	-0.254112	-20.703	0.0000000E+000	0.0106109	21.9353
2	1	0	1	0	111.902	1.24546	1.24564	8.81368	1	-0.251789	-21.188	0.0000000E+000	0.0109786	22.4336
2	1	0	1	0	112.168	1.2588	1.25895	9.02992	1	-0.249411	-21.7038	0.0000000E+000	0.0113682	22.9628
2	1	0	0	0	112.435	1.27213	1.27233	9.23083	1	-0.246975	-22.1808	0.0000000E+000	0.0117447	23.4532
2	1	0	0	0	112.702	1.28547	1.28559	9.39383	1	-0.244491	-22.5661	0.0000000E+000	0.0120766	23.8517
2	1	0	1	0	112.968	1.2988	1.29894	9.57259	1	-0.241962	-22.9837	0.0000000E+000	0.0124342	24.2826
2	1	0	0	0	113.235	1.31213	1.31231	9.72889	1	-0.239391	-23.3464	0.0000000E+000	0.0127673	24.6587
2	1	0	0	0	113.502	1.32547	1.32563	9.90402	1	-0.236772	-23.7525	0.0000000E+000	0.013129	25.0781
2	1	0	1	0	113.768	1.3388	1.3389	10.116	1	-0.234102	-24.2401	0.0000000E+000	0.0135443	25.579
2	1	0	1	0	114.035	1.35214	1.35231	10.28	1	-0.231381	-24.6113	0.0000000E+000	0.0139018	25.9636
2	1	0	0	0	114.302	1.36547	1.36566	10.4369	1	-0.228621	-24.9656	0.0000000E+000	0.0142533	26.3312
2	1	0	1	0	114.568	1.3788	1.37897	10.6384	1	-0.225812	-25.4194	0.0000000E+000	0.01467	26.7984
2	1	0	1	0	114.835	1.39214	1.39226	10.8017	1	-0.222951	-25.7806	0.0000000E+000	0.0150387	27.1728
2	1	0	0	0	115.102	1.40547	1.40562	10.9995	1	-0.220043	-26.2232	0.0000000E+000	0.0154612	27.6288
2	1	0	0	0	115.369	1.41881	1.41884	11.211	1	-0.217084	-26.6904	0.0000000E+000	0.0159066	28.1092
2	1	0	1	0	115.635	1.43214	1.43223	11.3882	1	-0.214075	-27.076	0.0000000E+000	0.0163106	28.5083
2	1	0	1	0	115.902	1.44548	1.44606	11.6178	1	-0.211002	-27.5846	0.0000000E+000	0.0168	29.0307
2	1	0	0	0	116.169	1.45881	1.45874	11.8053	1	-0.207886	-27.991	0.0000000E+000	0.0172208	29.4498
2	1	0	1	0	116.435	1.47214	1.47225	12.0318	1	-0.204706	-28.4894	0.0000000E+000	0.0177138	29.9616
2	1	0	1	0	116.702	1.48548	1.48564	12.2233	1	-0.201467	-28.9014	0.0000000E+000	0.0181594	30.3871
2	1	0	0	0	116.962	1.49848	1.49856	12.4707	1	-0.198257	-29.4461	0.0000000E+000	0.0186881	30.9447
2	0	0	1	1	117.162	1.49148	1.49281	12.0172	1	-0.195789	-28.3953	0.0000000E+000	0.0179394	29.8882
2	0	0	1	1	117.429	1.47815	1.47916	11.2851	1	-0.192688	-26.7158	0.0000000E+000	0.0166925	28.195
2	0	0	0	1	117.696	1.46481	1.46585	10.6007	1	-0.189769	-25.1492	0.0000000E+000	0.015539	26.615
2	0	0	0	1	117.963	1.45147	1.45228	9.98217	1	-0.187026	-23.7379	0.0000000E+000	0.0144969	25.1902
2	0	0	1	1	118.229	1.43814	1.43891	9.43521	1	-0.18444	-22.4958	0.0000000E+000	0.0135764	23.9347
2	0	0	1	1	118.496	1.42481	1.42562	8.86287	1	-0.182	-21.1972	0.0000000E+000	0.0126351	22.6228
2	0	0	0	1	118.763	1.41147	1.4123	8.36517	1	-0.179705	-20.069	0.0000000E+000	0.0118142	21.4813
2	0	0	1	1	119.029	1.39814	1.39894	7.8722	1	-0.17754	-18.9539	0.0000000E+000	0.0110127	20.3528
2	0	0	1	1	119.296	1.38481	1.38557	7.40588	1	-0.175504	-17.8946	0.0000000E+000	0.0102614	19.2802
2	0	0	0	1	119.563	1.37148	1.3723	6.94066	1	-0.173589	-16.8363	0.0000000E+000	0.00952467	18.2087
2	0	0	0	1	119.829	1.35813	1.3589	6.50546	1	-0.171797	-15.8461	0.0000000E+000	0.00884027	17.205
2	0	0	1	1	120.096	1.3448	1.34551	6.10403	1	-0.170116	-14.9322	0.0000000E+000	0.00821303	16.2777
2	0	0	1	1	120.363	1.33147	1.33212	5.72934	1	-0.16854	-14.0763	0.0000000E+000	0.00763218	15.4084
2	0	0	0	1	120.629	1.31814	1.31883	5.35918	1	-0.167063	-13.2285	0.0000000E+000	0.00706787	14.5473
2	0	0	1	1	120.896	1.3048	1.3055	4.98653	1	-0.165684	-12.3735	0.0000000E+000	0.00650991	13.679
2	0	0	1	1	121.163	1.29146	1.29209	4.63719	1	-0.164402	-11.5647	0.0000000E+000	0.00599165	12.8567
2	0	0	0	1	121.429	1.27814	1.2787	4.32687	1	-0.163208	-10.8465	0.0000000E+000	0.00553278	12.1252
2	0	0	0	1	121.696	1.2648	1.2654	4.03386	1	-0.162094	-10.1651	0.0000000E+000	0.00510444	11.4305
2	0	0	1	1	121.963	1.25146	1.25211	3.76567	1	-0.161056	-9.53997	0.0000000E+000	0.00471505	10.7921
2	0	0	0	1	122.229	1.23813	1.23874	3.47273	1	-0.160094	-8.85114	0.0000000E+000	0.00430179	10.0899
2	0	0	0	1	122.496	1.2248	1.22532	3.1922	1	-0.159207	-8.18833	0.0000000E+000	0.00391145	9.41365
2	0	0	1	1	122.763	1.21147	1.21199	2.95068	1	-0.158389	-7.61465	0.0000000E+000	0.00357619	8.82664
2	0	0	1	1	123.03	1.19812	1.19867	2.71618	1	-0.157635	-7.05406	0.0000000E+000	0.00325582	8.25273
2	0	0	0	1	123.296	1.18479	1.18531	2.49539	1	-0.156942	-6.52234	0.0000000E+000	0.00295782	7.70765
2	0	0	0	1	123.563	1.17146	1.17192	2.28681	1	-0.156305	-6.01529	0.0000000E+000	0.00267996	7.18722
2	0	0	1	1	123.83	1.15812	1.15859	2.09007	1	-0.155722	-5.53263	0.0000000E+000	0.00242154	6.69122
2	0	0	0	1	124.096	1.14479	1.14529	1.90255	1	-0.155191	-5.06871	0.0000000E+000	0.00217898	6.214
2	0	0	0	1	124.363	1.13145	1.13191	1.72314	1	-0.154709	-4.62111	0.0000000E+000	0.00195044	5.75302
2	0	0	1	1	124.63	1.11813	1.11854	1.56669	1	-0.154271	-4.22778	0.0000000E+000	0.00175241	5.34632
2	0	0	1	1	124.896	1.10478	1.10522	1.40566	1	-0.153875	-3.82099	0.0000000E+000	0.00155357	4.92621
2	0	0	0	1	125.163	1.09145	1.09191	1.26125	1	-0.15352	-3.45521	0.0000000E+000	0.00137717	4.54712
2	0	0	0	1	125.43	1.07812	1.07855	1.12055	1	-0.153203	-3.1029	0.0000000E+000	0.00120857	4.18145
2	0	0	1	1	125.696	1.06479	1.06517	0.991487	1	-0.152922	-2.78365	0.0000000E+000	0.0010561	3.84882
2	0	0	0	1	125.963	1.05145	1.05182	0.869043	1	-0.152675	-2.48204	0.0000000E+000	0.000914075	3.53386
2	0	0	0	1	126.23	1.03811	1.03852	0.744104	1	-0.15246	-2.17486	0.0000000E+000	0.000772764	3.21338
2	0	0	1	1	126.496	1.02479	1.02515	0.630859	1	-0.152278	-1.89923	0.0000000E+000	0.000646726	2.92438
2	0	0	1	1	126.763	1.01145	1.01179	0.523902	1	-0.152124	-1.63911	0.0000000E+000	0.000530081	2.65091
2	0	0	0	1	127.03	0.998115	0.998436	0.427557	1	-0.151998	-1.40703	0.0000000E+000	0.000426889	2.40547
2	0	0	1	1	127.296	0.984784	0.98513	0.330641	1	-0.151897	-1.17273	0.0000000E+000	0.000325724	2.15786
2	0	0	1	1	127.563	0.971446	0.9718	0.236163	1	-0.151822	-0.944826	0.0000000E+000	0.000229503	1.91663
2	0	0	0	1	127.83	0.958115	0.958438	0.155698	1	-0.15177	-0.749998	0.0000000E+000	0.000149227	1.70844
2	0	0	0	1	128.097	0.944774	0.945098	0.0758815	1	-0.151739	-0.558851	0.0000000E+000	7.17154e-05	1.50395
2	0	0	1	1	128.363	0.931443	0.931756	-0.000986484	1	-0.15173	-0.373203	0.0000000E+000	-9.19162e-07	1.30496
2	0	0	1	1	128.63	0.918106	0.918453	-0.0778263	1	-0.151741	-0.187925	0.0000000E+000	-7.14798e-05	1.10638
2	0	0	0	1	128.897	0.904775	0.905083	-0.150223	1	-0.151772	-0.0130158	0.0000000E+000	-0.000135964	0.918099
2	0	0	1	1	129.163	0.891444	0.891756	-0.214746	1	-0.151821	0.143431	0.0000000E+000	-0.000191501	0.748325
2	0	0	1	1	129.43	0.878105	0.878386	-0.277344	1	-0.151888	0.295709	0.0000000E+000	-0.000243615	0.582677
2	0	0	0	1	129.697	0.864776	0.865086	-0.331842	1	-0.151969	0.429475	0.0000000E+000	-0.000287072	0.435612
2	0	0	0	1	129.963	0.851435	0.85173	-0.387022	1	-0.152066	0.566223	0.0000000E+000	-0.000329639	0.285508
2	0	0	1	1	130.23	0.838104	0.838407	-0.43806	1	-0.152176	0.692905	0.0000000E+000	-0.000367273	0.145502
2	0	0	1	1	130.497	0.824766	0.825012	-0.478692	1	-0.152299	0.795092	0.0000000E+000	-0.000394926	0.0299197
2	0	0	0	1	130.763	0.811436	0.811728	-0.521851	1	-0.152432	0.904564	0.0000000E+000	-0.000423601	-0.0928354
2	0	0	1	1	131.03	0.798105	0.798365	-0.562218	1	-0.152578	1.00767	0.0000000E+000	-0.000448855	-0.209308
2	0	0	1	1	131.297	0.784764	0.785035	-0.584986	1	-0.152731	1.06932	0.0000000E+000	-0.000459234	-0.284287
2	0	0	0	1	131.563	0.771436	0.771675	-0.61298	1	-0.152891	1.1428	0.0000000E+000	-0.000473022	-0.37113
2	0	0	0	1	131.83	0.758095	0.758359	-0.632826	1	-0.153057	1.1968	0.0000000E+000	-0.00047991	-0.438446
2	0	0	1	1	132.097	0.744764	0.74502	-0.649631	1	-0.153229	1.24374	0.0000000E+000	-0.000483988	-0.498716
2	0	0	0	1	132.363	0.731434	0.73171	-0.666667	1	-0.153405	1.29076	0.0000000E+000	-0.000487807	-0.55905
2	0	0	0	1	132.63	0.718096	0.718314	-0.680313	1	-0.153585	1.33041	0.0000000E+000	-0.000488678	-0.612093
2	0	0	1	1	132.897	0.704765	0.704991	-0.693198	1	-0.153768	1.36761	0.0000000E+000	-0.000488698	-0.66262
2	0	0	1	1	133.164	0.691424	0.69165	-0.702538	1	-0.153955	1.39688	0.0000000E+000	-0.000485911	-0.70523
2	0	0	0	1	133.43	0.678093	0.678328	-0.71444	1	-0.154144	1.43168	0.0000000E+000	-0.000484624	-0.753351
2	0	0	0	1	133.697	0.664756	0.664971	-0.72582	1	-0.154336	1.46653	0.0000000E+000	-0.000482649	-0.80156
2	0	0	1	1	133.964	0.651425	0.651626	-0.731196	1	-0.154531	1.48683	0.0000000E+000	-0.000476466	-0.835206
2	0	0	0	1	134.23	0.638094	0.638284	-0.734525	1	-0.154726	1.50215	0.0000000E+000	-0.000468836	-0.86387
2	0	0	0	1	134.497	0.624756	0.624979	-0.740048	1	-0.154923	1.52234	0.0000000E+000	-0.000462514	-0.897361
2	0	0	1	1	134.764	0.611426	0.611619	-0.753405	1	-0.155123	1.56176	0.0000000E+000	-0.000460797	-0.950139
2	0	0	1	1	135.03	0.598085	0.598269	-0.753708	1	-0.155324	1.57137	0.0000000E+000	-0.00045092	-0.973103
2	0	0	0	1	135.297	0.584754	0.584949	-0.758213	1	-0.155526	1.59042	0.0000000E+000	-0.000443516	-1.00547
2	0	0	0	1	135.564	0.571416	0.571615	-0.759046	1	-0.155729	1.60101	0.0000000E+000	-0.000433882	-1.0294
2	0	0	1	1	135.83	0.558086	0.558291	-0.764502	1	-0.155932	1.62346	0.0000000E+000	-0.000426815	-1.06517
2	0	0	0	1	136.097	0.544755	0.544938	-0.764977	1	-0.156136	1.63361	0.0000000E+000	-0.000416865	-1.08868
2	0	0	0	1	136.364	0.531414	0.531572	-0.765996	1	-0.156341	1.64566	0.0000000E+000	-0.000407182	-1.11409
2	0	0	1	1	136.63	0.518086	0.51829	-0.770819	1	-0.156546	1.66681	0.0000000E+000	-0.000399508	-1.14852
2	0	0	1	1	136.897	0.504746	0.504935	-0.773421	1	-0.156753	1.68285	0.0000000E+000	-0.000390527	-1.17792
2	0	0	0	1	137.164	0.491415	0.491599	-0.778864	1	-0.15696	1.70716	0.0000000E+000	-0.000382889	-1.21557
2	0	0	1	1	137.43	0.478084	0.478264	-0.785324	1	-0.157168	1.73449	0.0000000E+000	-0.000375592	-1.25623
2	0	0	1	1	137.697	0.464746	0.464891	-0.78594	1	-0.157379	1.7495	0.0000000E+000	-0.000365377	-1.28461
2	0	0	0	1	137.964	0.451415	0.451549	-0.787408	1	-0.157588	1.76632	0.0000000E+000	-0.000355553	-1.31477
2	0	0	0	1	138.231	0.438074	0.438222	-0.795944	1	-0.1578	1.80194	0.0000000E+000	-0.0003488	-1.36372
2	0	0	1	1	138.497	0.424744	0.424903	-0.7995	1	-0.158012	1.82815	0.0000000E+000	-0.00033971	-1.40325
2	0	0	1	1	138.764	0.411406	0.411551	-0.806763	1	-0.158227	1.86632	0.0000000E+000	-0.000332024	-1.45477
2	0	0	0	1	139.031	0.398075	0.398242	-0.812874	1	-0.158443	1.90451	0.0000000E+000	-0.000323721	-1.50627
2	0	0	1	1	139.297	0.384744	0.384914	-0.821036	1	-0.158661	1.95186	0.0000000E+000	-0.000316028	-1.56695
2	0	0	1	1	139.564	0.371406	0.371566	-0.829781	1	-0.158882	2.00677	0.0000000E+000	-0.000308319	-1.6352
2	0	0	0	1	139.831	0.358076	0.358226	-0.846129	1	-0.159106	2.09094	0.0000000E+000	-0.000303106	-1.73272
2	0	0	0	1	140.097	0.344735	0.344914	-0.850486	1	-0.159332	2.16185	0.0000000E+000	-0.000293345	-1.81694
2	0	0	1	1	140.364	0.331404	0.331571	-0.861416	1	-0.159561	2.29372	0.0000000E+000	-0.000285621	-1.96215
2	0	0	1	1	140.631	0.318067	0.318206	-0.875821	1	-0.159793	2.41097	0.0000000E+000	-0.000278691	-2.09277
2	0	0	0	1	140.897	0.304736	0.304832	-0.887779	1	-0.160028	2.49378	0.0000000E+000	-0.000270623	-2.18895
2	0	0	1	1	141.164	0.291405	0.291517	-0.896687	1	-0.160267	2.55663	0.0000000E+000	-0.000261399	-2.26511
2	0	0	1	1	141.431	0.278064	0.278197	-0.914436	1	-0.160508	2.63158	0.0000000E+000	-0.000254393	-2.35339
2	0	0	0	1	141.697	0.264736	0.264862	-0.923494	1	-0.160753	2.68197	0.0000000E+000	-0.000244599	-2.41711
2	0	0	0	1	141.964	0.251396	0.251495	-0.935357	1	-0.161001	2.73567	0.0000000E+000	-0.000235238	-2.48418
2	0	0	1	1	142.231	0.238065	0.238172	-0.946268	1	-0.161253	2.78526	0.0000000E+000	-0.000225374	-2.54708
2	0	0	0	1	142.497	0.224734	0.224831	-0.959963	1	-0.161507	2.83992	0.0000000E+000	-0.000215829	-2.61509
2	0	0	0	1	142.764	0.211396	0.211484	-0.978811	1	-0.161766	2.90591	0.0000000E+000	-0.000207003	-2.69443
2	0	0	1	1	143.031	0.198065	0.198161	-0.991051	1	-0.162029	2.95537	0.0000000E+000	-0.000196388	-2.75721
2	0	0	1	1	143.298	0.184724	0.184806	-1.00594	1	-0.162295	3.0116	0.0000000E+000	-0.000185905	-2.8268
2	0	0	1	1	143.502	0.174227	0.174517	-1.01833	1	-0.162502	3.05453	0.0000000E+000	-0.000177715	-2.88001