File: f.mpt
EC-Lab ASCII FILE
Nb header lines : 50

Open Circuit Voltage

Run on channel : 3 (SN 4895)
User :
Electrode connection : standard
Ewe ctrl range : min = -10.00 V, max = 10.00 V
Ewe,I filtering : 50 kHz
Safety Limits :
	Do not start on E overload
Channel : Grounded
Acquisition started on : 06/04/2018 12:45:52
Technique started on : 06/04/2018 16:48:28
Saved on :
	File : GF201805_21_07_OCV.mpr
	Directory : C:\Users\L004\Documents\EC-Lab\Data\2018\06 June\04June_Erdem_NO3R\
	Host : 192.109.209.127
Device : VMP-300 (SN 0241)
Address : 192.109.209.128
EC-Lab for windows v11.12 (software)
Internet server v11.12 (firmware)
Command interpretor v11.12 (firmware)
Electrode material : 201805_21
Initial state : 500rpm stirring - N2 blanket
Electrolyte : 30mM NaClO4 100ppm NaNO3
Comments : Vacuum in 90mL
Comments : 1 g/L GO 70% 130ºC 8h
Current amplifier : B-2A30V
Cable : special
Reference electrode : Ag/AgCl Ref #7 (0.208 V)
Electrode surface area : 2.000 cm²
Characteristic mass : 1.000 g
Equivalent Weight : 0.000 g/eq.
Density : 0.000 g/cm3
Record Ece
Text export
Cycle Definition : Charge/Discharge alternance
tR (h:m:s)          0:05:0.0000
dER/dt (mV/h)       0.0
dER (mV)            0.00
dtR (s)             0.5000
E range min (V)     -10.000
E range max (V)     10.000

Number of loops : 1
Loop 0 from point number 0 to 600

mode	error	time/s	Ewe/V	Ece/V	Rcmp/Ohm	Ewe-Ece/V
3	0	14556.3	-1.2195	1.45471	0.0000000E+000	-2.67421
3	0	14556.8	-1.14965	1.42433	0.0000000E+000	-2.57398
3	0	14557.3	-1.10021	1.40695	0.0000000E+000	-2.50715
3	0	14557.8	-1.06225	1.39482	0.0000000E+000	-2.45707
3	0	14558.3	-1.03124	1.38544	0.0000000E+000	-2.41668
3	0	14558.8	-1.00482	1.37788	0.0000000E+000	-2.38269
3	0	14559.3	-0.982091	1.37111	0.0000000E+000	-2.3532
3	0	14559.8	-0.961834	1.36558	0.0000000E+000	-2.32741
3	0	14560.3	-0.944225	1.36018	0.0000000E+000	-2.30441
3	0	14560.8	-0.928215	1.35578	0.0000000E+000	-2.284
3	0	14561.3	-0.914017	1.35152	0.0000000E+000	-2.26554
3	0	14561.8	-0.90067	1.34757	0.0000000E+000	-2.24824
3	0	14562.3	-0.887751	1.3442	0.0000000E+000	-2.23195
3	0	14562.8	-0.875084	1.34091	0.0000000E+000	-2.21599
3	0	14563.3	-0.86278	1.33833	0.0000000E+000	-2.20111
3	0	14563.8	-0.851037	1.3352	0.0000000E+000	-2.18624
3	0	14564.3	-0.839872	1.33249	0.0000000E+000	-2.17236
3	0	14564.8	-0.828695	1.33032	0.0000000E+000	-2.15902
3	0	14565.3	-0.818335	1.32788	0.0000000E+000	-2.14622
3	0	14565.8	-0.808063	1.32551	0.0000000E+000	-2.13357
3	0	14566.3	-0.798093	1.32335	0.0000000E+000	-2.12144
3	0	14566.8	-0.788612	1.32132	0.0000000E+000	-2.10993
3	0	14567.3	-0.779261	1.31919	0.0000000E+000	-2.09845
3	0	14567.8	-0.77007	1.31733	0.0000000E+000	-2.0874
3	0	14568.3	-0.761349	1.31538	0.0000000E+000	-2.07672
3	0	14568.8	-0.752922	1.31342	0.0000000E+000	-2.06634
3	0	14569.3	-0.744908	1.31149	0.0000000E+000	-2.0564
3	0	14569.8	-0.737024	1.30995	0.0000000E+000	-2.04697
3	0	14570.3	-0.729434	1.30823	0.0000000E+000	-2.03766
3	0	14570.8	-0.722214	1.30637	0.0000000E+000	-2.02859
3	0	14571.3	-0.715197	1.30486	0.0000000E+000	-2.02006
3	0	14571.8	-0.708306	1.30338	0.0000000E+000	-2.01169
3	0	14572.3	-0.701712	1.30177	0.0000000E+000	-2.00348
3	0	14572.8	-0.695314	1.30029	0.0000000E+000	-1.99561
3	0	14573.3	-0.689152	1.29881	0.0000000E+000	-1.98797
3	0	14573.8	-0.683182	1.29761	0.0000000E+000	-1.98079
3	0	14574.3	-0.677383	1.296	0.0000000E+000	-1.97338
3	0	14574.8	-0.67189	1.29431	0.0000000E+000	-1.9662
3	0	14575.3	-0.666431	1.29308	0.0000000E+000	-1.95951
3	0	14575.8	-0.66124	1.29174	0.0000000E+000	-1.95298
3	0	14576.3	-0.656076	1.29036	0.0000000E+000	-1.94644
3	0	14576.8	-0.65077	1.28912	0.0000000E+000	-1.93989
3	0	14577.3	-0.645605	1.28775	0.0000000E+000	-1.93335
3	0	14577.8	-0.640525	1.28655	0.0000000E+000	-1.92707
3	0	14578.3	-0.635459	1.28528	0.0000000E+000	-1.92074
3	0	14578.8	-0.630478	1.28435	0.0000000E+000	-1.91483
3	0	14579.3	-0.625787	1.2829	0.0000000E+000	-1.90869
3	0	14579.8	-0.620947	1.28187	0.0000000E+000	-1.90282
3	0	14580.3	-0.616111	1.28057	0.0000000E+000	-1.89668
3	0	14580.8	-0.611398	1.27909	0.0000000E+000	-1.89049
3	0	14581.3	-0.606413	1.2782	0.0000000E+000	-1.88461
3	0	14581.8	-0.601435	1.27717	0.0000000E+000	-1.8786
3	0	14582.3	-0.596603	1.27565	0.0000000E+000	-1.87226
3	0	14582.8	-0.591469	1.27524	0.0000000E+000	-1.86671
3	0	14583.3	-0.586599	1.27407	0.0000000E+000	-1.86067
3	0	14583.8	-0.581423	1.27311	0.0000000E+000	-1.85453
3	0	14584.3	-0.576766	1.27163	0.0000000E+000	-1.8484
3	0	14584.8	-0.571716	1.27064	0.0000000E+000	-1.84235
3	0	14585.3	-0.56675	1.26981	0.0000000E+000	-1.83656
3	0	14585.8	-0.561884	1.26858	0.0000000E+000	-1.83046
3	0	14586.3	-0.557074	1.26772	0.0000000E+000	-1.82479
3	0	14586.8	-0.551979	1.26679	0.0000000E+000	-1.81877
3	0	14587.3	-0.547166	1.26603	0.0000000E+000	-1.8132
3	0	14587.8	-0.542509	1.26493	0.0000000E+000	-1.80744
3	0	14588.3	-0.537795	1.26428	0.0000000E+000	-1.80208
3	0	14588.8	-0.533215	1.26318	0.0000000E+000	-1.7964
3	0	14589.3	-0.528753	1.26229	0.0000000E+000	-1.79104
3	0	14589.8	-0.524345	1.26184	0.0000000E+000	-1.78619
3	0	14590.3	-0.520265	1.26064	0.0000000E+000	-1.7809
3	0	14590.8	-0.516132	1.25968	0.0000000E+000	-1.77581
3	0	14591.3	-0.511801	1.2592	0.0000000E+000	-1.771
3	0	14591.8	-0.507893	1.25827	0.0000000E+000	-1.76616
3	0	14592.3	-0.503874	1.25741	0.0000000E+000	-1.76128
3	0	14592.8	-0.499974	1.25686	0.0000000E+000	-1.75683
3	0	14593.3	-0.49628	1.25552	0.0000000E+000	-1.7518
3	0	14593.8	-0.492506	1.255	0.0000000E+000	-1.74751
3	0	14594.3	-0.488743	1.25476	0.0000000E+000	-1.74351
3	0	14594.8	-0.48516	1.25387	0.0000000E+000	-1.73903
3	0	14595.3	-0.481665	1.25305	0.0000000E+000	-1.73471
3	0	14595.8	-0.478055	1.2525	0.0000000E+000	-1.73055
3	0	14596.3	-0.474793	1.2515	0.0000000E+000	-1.72629
3	0	14596.8	-0.471504	1.25095	0.0000000E+000	-1.72245
3	0	14597.3	-0.468146	1.24999	0.0000000E+000	-1.71813
3	0	14597.8	-0.464907	1.24951	0.0000000E+000	-1.71441
3	0	14598.3	-0.461698	1.24885	0.0000000E+000	-1.71055
3	0	14598.8	-0.458822	1.2483	0.0000000E+000	-1.70713
3	0	14599.3	-0.455621	1.24762	0.0000000E+000	-1.70324
3	0	14599.8	-0.452687	1.24679	0.0000000E+000	-1.69948
3	0	14600.3	-0.449581	1.24645	0.0000000E+000	-1.69603
3	0	14600.8	-0.446846	1.24597	0.0000000E+000	-1.69281
3	0	14601.3	-0.444058	1.24518	0.0000000E+000	-1.68923
3	0	14601.8	-0.441445	1.24463	0.0000000E+000	-1.68607
3	0	14602.3	-0.438576	1.24425	0.0000000E+000	-1.68283
3	0	14602.8	-0.435956	1.24353	0.0000000E+000	-1.67948
3	0	14603.3	-0.433152	1.24287	0.0000000E+000	-1.67603
3	0	14603.8	-0.430516	1.24219	0.0000000E+000	-1.6727
3	0	14604.3	-0.428301	1.24208	0.0000000E+000	-1.67039
3	0	14604.8	-0.425722	1.24153	0.0000000E+000	-1.66726
3	0	14605.3	-0.423247	1.24133	0.0000000E+000	-1.66458
3	0	14605.8	-0.420894	1.24057	0.0000000E+000	-1.66147
3	0	14606.3	-0.418842	1.23975	0.0000000E+000	-1.65859
3	0	14606.8	-0.416677	1.23944	0.0000000E+000	-1.65612
3	0	14607.3	-0.41453	1.23872	0.0000000E+000	-1.65325
3	0	14607.8	-0.412135	1.23861	0.0000000E+000	-1.65075
3	0	14608.3	-0.409927	1.23806	0.0000000E+000	-1.64799
3	0	14608.8	-0.407742	1.23796	0.0000000E+000	-1.6457
3	0	14609.3	-0.405648	1.23762	0.0000000E+000	-1.64327
3	0	14609.8	-0.403712	1.23672	0.0000000E+000	-1.64044
3	0	14610.3	-0.401825	1.23648	0.0000000E+000	-1.63831
3	0	14610.8	-0.399877	1.236	0.0000000E+000	-1.63588
3	0	14611.3	-0.39781	1.23562	0.0000000E+000	-1.63343
3	0	14611.8	-0.396026	1.23532	0.0000000E+000	-1.63134
3	0	14612.3	-0.39412	1.23483	0.0000000E+000	-1.62895
3	0	14612.8	-0.392263	1.23428	0.0000000E+000	-1.62655
3	0	14613.3	-0.390342	1.23408	0.0000000E+000	-1.62442
3	0	14613.8	-0.388684	1.23363	0.0000000E+000	-1.62232
3	0	14614.3	-0.387084	1.23301	0.0000000E+000	-1.6201
3	0	14614.8	-0.385239	1.23291	0.0000000E+000	-1.61815
3	0	14615.3	-0.383722	1.2327	0.0000000E+000	-1.61643
3	0	14615.8	-0.382118	1.23222	0.0000000E+000	-1.61434
3	0	14616.3	-0.380441	1.2316	0.0000000E+000	-1.61205
3	0	14616.8	-0.378657	1.23164	0.0000000E+000	-1.6103
3	0	14617.3	-0.377045	1.2315	0.0000000E+000	-1.60855
3	0	14617.8	-0.37575	1.23095	0.0000000E+000	-1.6067
3	0	14618.3	-0.374016	1.23075	0.0000000E+000	-1.60476
3	0	14618.8	-0.372533	1.23013	0.0000000E+000	-1.60266
3	0	14619.3	-0.371132	1.22996	0.0000000E+000	-1.60109
3	0	14619.8	-0.369756	1.22958	0.0000000E+000	-1.59933
3	0	14620.3	-0.367972	1.22941	0.0000000E+000	-1.59738
3	0	14620.8	-0.366777	1.2292	0.0000000E+000	-1.59598
3	0	14621.3	-0.365337	1.22892	0.0000000E+000	-1.59426
3	0	14621.8	-0.364057	1.22868	0.0000000E+000	-1.59274
3	0	14622.3	-0.362754	1.22848	0.0000000E+000	-1.59123
3	0	14622.8	-0.361406	1.228	0.0000000E+000	-1.5894
3	0	14623.3	-0.360226	1.22782	0.0000000E+000	-1.58805
3	0	14623.8	-0.358835	1.22752	0.0000000E+000	-1.58635
3	0	14624.3	-0.35775	1.22724	0.0000000E+000	-1.58499
3	0	14624.8	-0.356417	1.22707	0.0000000E+000	-1.58349
3	0	14625.3	-0.355046	1.22652	0.0000000E+000	-1.58156
3	0	14625.8	-0.353972	1.22659	0.0000000E+000	-1.58056
3	0	14626.3	-0.352762	1.22652	0.0000000E+000	-1.57928
3	0	14626.8	-0.351742	1.22614	0.0000000E+000	-1.57788
3	0	14627.3	-0.350458	1.22566	0.0000000E+000	-1.57612
3	0	14627.8	-0.349106	1.22576	0.0000000E+000	-1.57487
3	0	14628.3	-0.347922	1.22545	0.0000000E+000	-1.57338
3	0	14628.8	-0.346886	1.22521	0.0000000E+000	-1.5721
3	0	14629.3	-0.345805	1.22508	0.0000000E+000	-1.57088
3	0	14629.8	-0.34469	1.22477	0.0000000E+000	-1.56946
3	0	14630.3	-0.343716	1.22442	0.0000000E+000	-1.56814
3	0	14630.8	-0.342791	1.22401	0.0000000E+000	-1.5668
3	0	14631.3	-0.341615	1.22418	0.0000000E+000	-1.5658
3	0	14631.8	-0.340767	1.22367	0.0000000E+000	-1.56443
3	0	14632.3	-0.339617	1.2237	0.0000000E+000	-1.56332
3	0	14632.8	-0.33883	1.22325	0.0000000E+000	-1.56208
3	0	14633.3	-0.337887	1.22267	0.0000000E+000	-1.56056
3	0	14633.8	-0.336787	1.22284	0.0000000E+000	-1.55963
3	0	14634.3	-0.335763	1.22284	0.0000000E+000	-1.55861
3	0	14634.8	-0.334693	1.2226	0.0000000E+000	-1.5573
3	0	14635.3	-0.333746	1.22233	0.0000000E+000	-1.55607
3	0	14635.8	-0.332672	1.2224	0.0000000E+000	-1.55507
3	0	14636.3	-0.331828	1.22243	0.0000000E+000	-1.55426
3	0	14636.8	-0.330782	1.22195	0.0000000E+000	-1.55273
3	0	14637.3	-0.330075	1.2215	0.0000000E+000	-1.55158
3	0	14637.8	-0.329311	1.22167	0.0000000E+000	-1.55099
3	0	14638.3	-0.32844	1.2214	0.0000000E+000	-1.54984
3	0	14638.8	-0.327493	1.22119	0.0000000E+000	-1.54869
3	0	14639.3	-0.326461	1.22126	0.0000000E+000	-1.54772
3	0	14639.8	-0.325674	1.22088	0.0000000E+000	-1.54656
3	0	14640.3	-0.324922	1.22054	0.0000000E+000	-1.54546
3	0	14640.8	-0.324039	1.22051	0.0000000E+000	-1.54455
3	0	14641.3	-0.323065	1.22057	0.0000000E+000	-1.54364
3	0	14641.8	-0.322286	1.2204	0.0000000E+000	-1.54269
3	0	14642.3	-0.321511	1.21999	0.0000000E+000	-1.5415
3	0	14642.8	-0.320808	1.2202	0.0000000E+000	-1.541
3	0	14643.3	-0.319967	1.21999	0.0000000E+000	-1.53996
3	0	14643.8	-0.319261	1.21968	0.0000000E+000	-1.53894
3	0	14644.3	-0.318493	1.21941	0.0000000E+000	-1.5379
3	0	14644.8	-0.317695	1.21951	0.0000000E+000	-1.5372
3	0	14645.3	-0.316491	1.21958	0.0000000E+000	-1.53607
3	0	14645.8	-0.315781	1.21948	0.0000000E+000	-1.53526
3	0	14646.3	-0.315257	1.21906	0.0000000E+000	-1.53432
3	0	14646.8	-0.314635	1.21882	0.0000000E+000	-1.53346
3	0	14647.3	-0.313825	1.21893	0.0000000E+000	-1.53275
3	0	14647.8	-0.313019	1.21896	0.0000000E+000	-1.53198
3	0	14648.3	-0.312236	1.21889	0.0000000E+000	-1.53113
3	0	14648.8	-0.311563	1.21872	0.0000000E+000	-1.53028
3	0	14649.3	-0.311025	1.21831	0.0000000E+000	-1.52933
3	0	14649.8	-0.310349	1.21807	0.0000000E+000	-1.52842
3	0	14650.3	-0.309665	1.218	0.0000000E+000	-1.52766
3	0	14650.8	-0.308943	1.21814	0.0000000E+000	-1.52708
3	0	14651.3	-0.308171	1.21786	0.0000000E+000	-1.52603
3	0	14651.8	-0.307484	1.21834	0.0000000E+000	-1.52582
3	0	14652.3	-0.306769	1.21796	0.0000000E+000	-1.52473
3	0	14652.8	-0.306284	1.21738	0.0000000E+000	-1.52366
3	0	14653.3	-0.305669	1.21734	0.0000000E+000	-1.52301
3	0	14653.8	-0.304749	1.21734	0.0000000E+000	-1.52209
3	0	14654.3	-0.30405	1.21748	0.0000000E+000	-1.52153
3	0	14654.8	-0.303591	1.21724	0.0000000E+000	-1.52083
3	0	14655.3	-0.302667	1.21741	0.0000000E+000	-1.52008
3	0	14655.8	-0.302327	1.21707	0.0000000E+000	-1.5194
3	0	14656.3	-0.301731	1.21714	0.0000000E+000	-1.51887
3	0	14656.8	-0.301078	1.2169	0.0000000E+000	-1.51798
3	0	14657.3	-0.300608	1.21652	0.0000000E+000	-1.51713
3	0	14657.8	-0.299913	1.21676	0.0000000E+000	-1.51667
3	0	14658.3	-0.299015	1.21686	0.0000000E+000	-1.51588
3	0	14658.8	-0.298465	1.21669	0.0000000E+000	-1.51516
3	0	14659.3	-0.297812	1.21655	0.0000000E+000	-1.51437
3	0	14659.8	-0.297514	1.21625	0.0000000E+000	-1.51376
3	0	14660.3	-0.296952	1.21614	0.0000000E+000	-1.51309
3	0	14660.8	-0.296272	1.21635	0.0000000E+000	-1.51262
3	0	14661.3	-0.295764	1.21597	0.0000000E+000	-1.51173
3	0	14661.8	-0.295283	1.21594	0.0000000E+000	-1.51122
3	0	14662.3	-0.294538	1.2159	0.0000000E+000	-1.51044
3	0	14662.8	-0.294244	1.21576	0.0000000E+000	-1.51001
3	0	14663.3	-0.293702	1.21563	0.0000000E+000	-1.50933
3	0	14663.8	-0.292976	1.21566	0.0000000E+000	-1.50864
3	0	14664.3	-0.292311	1.21587	0.0000000E+000	-1.50818
3	0	14664.8	-0.291891	1.21528	0.0000000E+000	-1.50717
3	0	14665.3	-0.291291	1.21525	0.0000000E+000	-1.50654
3	0	14665.8	-0.290974	1.21518	0.0000000E+000	-1.50615
3	0	14666.3	-0.290558	1.21535	0.0000000E+000	-1.50591
3	0	14666.8	-0.290111	1.21508	0.0000000E+000	-1.50519
3	0	14667.3	-0.289519	1.21491	0.0000000E+000	-1.50442
3	0	14667.8	-0.288831	1.21484	0.0000000E+000	-1.50367
3	0	14668.3	-0.288315	1.21497	0.0000000E+000	-1.50329
3	0	14668.8	-0.287964	1.2147	0.0000000E+000	-1.50266
3	0	14669.3	-0.287269	1.21484	0.0000000E+000	-1.50211
3	0	14669.8	-0.28686	1.21466	0.0000000E+000	-1.50152
3	0	14670.3	-0.286379	1.21494	0.0000000E+000	-1.50132
3	0	14670.8	-0.285871	1.21436	0.0000000E+000	-1.50023
3	0	14671.3	-0.285565	1.21432	0.0000000E+000	-1.49989
3	0	14671.8	-0.284923	1.21418	0.0000000E+000	-1.49911
3	0	14672.3	-0.28435	1.21442	0.0000000E+000	-1.49877
3	0	14672.8	-0.283869	1.2147	0.0000000E+000	-1.49857
3	0	14673.3	-0.283376	1.21422	0.0000000E+000	-1.49759
3	0	14673.8	-0.28304	1.21425	0.0000000E+000	-1.49729
3	0	14674.3	-0.282677	1.21391	0.0000000E+000	-1.49659
3	0	14674.8	-0.282181	1.21394	0.0000000E+000	-1.49612
3	0	14675.3	-0.281814	1.21384	0.0000000E+000	-1.49565
3	0	14675.8	-0.281249	1.21391	0.0000000E+000	-1.49516
3	0	14676.3	-0.280767	1.21384	0.0000000E+000	-1.49461
3	0	14676.8	-0.28058	1.21353	0.0000000E+000	-1.49411
3	0	14677.3	-0.280133	1.2136	0.0000000E+000	-1.49373
3	0	14677.8	-0.279648	1.21353	0.0000000E+000	-1.49318
3	0	14678.3	-0.278903	1.21367	0.0000000E+000	-1.49257
3	0	14678.8	-0.27851	1.21343	0.0000000E+000	-1.49194
3	0	14679.3	-0.278017	1.21384	0.0000000E+000	-1.49186
3	0	14679.8	-0.277707	1.21353	0.0000000E+000	-1.49124
3	0	14680.3	-0.277455	1.21315	0.0000000E+000	-1.49061
3	0	14680.8	-0.277024	1.21315	0.0000000E+000	-1.49018
3	0	14681.3	-0.276286	1.21353	0.0000000E+000	-1.48982
3	0	14681.8	-0.275801	1.21339	0.0000000E+000	-1.48919
3	0	14682.3	-0.275591	1.21319	0.0000000E+000	-1.48878
3	0	14682.8	-0.275309	1.21271	0.0000000E+000	-1.48801
3	0	14683.3	-0.274716	1.21312	0.0000000E+000	-1.48784
3	0	14683.8	-0.274346	1.21305	0.0000000E+000	-1.4874
3	0	14684.3	-0.273834	1.21302	0.0000000E+000	-1.48685
3	0	14684.8	-0.273376	1.21326	0.0000000E+000	-1.48663
3	0	14685.3	-0.273315	1.2126	0.0000000E+000	-1.48592
3	0	14685.8	-0.272959	1.21284	0.0000000E+000	-1.4858
3	0	14686.3	-0.272424	1.21257	0.0000000E+000	-1.48499
3	0	14686.8	-0.271714	1.21302	0.0000000E+000	-1.48473
3	0	14687.3	-0.271401	1.21312	0.0000000E+000	-1.48452
3	0	14687.8	-0.271236	1.21264	0.0000000E+000	-1.48387
3	0	14688.3	-0.270946	1.21264	0.0000000E+000	-1.48358
3	0	14688.8	-0.270541	1.21267	0.0000000E+000	-1.48321
3	0	14689.3	-0.270201	1.21236	0.0000000E+000	-1.48256
3	0	14689.8	-0.269716	1.21229	0.0000000E+000	-1.48201
3	0	14690.3	-0.269269	1.21264	0.0000000E+000	-1.48191
3	0	14690.8	-0.268906	1.2124	0.0000000E+000	-1.4813
3	0	14691.3	-0.268601	1.21247	0.0000000E+000	-1.48107
3	0	14691.8	-0.268181	1.21236	0.0000000E+000	-1.48054
3	0	14692.3	-0.267902	1.21247	0.0000000E+000	-1.48037
3	0	14692.8	-0.267474	1.21236	0.0000000E+000	-1.47984
3	0	14693.3	-0.267153	1.2124	0.0000000E+000	-1.47955
3	0	14693.8	-0.266916	1.21205	0.0000000E+000	-1.47897
3	0	14694.3	-0.266469	1.21229	0.0000000E+000	-1.47876
3	0	14694.8	-0.266236	1.21216	0.0000000E+000	-1.47839
3	0	14695.3	-0.265667	1.21219	0.0000000E+000	-1.47786
3	0	14695.8	-0.265549	1.21212	0.0000000E+000	-1.47767
3	0	14696.3	-0.265186	1.21188	0.0000000E+000	-1.47707
3	0	14696.8	-0.264834	1.21198	0.0000000E+000	-1.47682
3	0	14697.3	-0.264563	1.21178	0.0000000E+000	-1.47634
3	0	14697.8	-0.264013	1.21223	0.0000000E+000	-1.47624
3	0	14698.3	-0.263864	1.21178	0.0000000E+000	-1.47564
3	0	14698.8	-0.263516	1.21181	0.0000000E+000	-1.47533
3	0	14699.3	-0.262966	1.21188	0.0000000E+000	-1.47485
3	0	14699.8	-0.262684	1.21209	0.0000000E+000	-1.47477
3	0	14700.3	-0.262378	1.21178	0.0000000E+000	-1.47416
3	0	14700.8	-0.262099	1.21178	0.0000000E+000	-1.47388
3	0	14701.3	-0.261878	1.21168	0.0000000E+000	-1.47355
3	0	14701.8	-0.261446	1.21188	0.0000000E+000	-1.47333
3	0	14702.3	-0.261255	1.21157	0.0000000E+000	-1.47283
3	0	14702.8	-0.260797	1.21147	0.0000000E+000	-1.47227
3	0	14703.3	-0.260338	1.21171	0.0000000E+000	-1.47205
3	0	14703.8	-0.260266	1.2115	0.0000000E+000	-1.47177
3	0	14704.3	-0.259803	1.21171	0.0000000E+000	-1.47151
3	0	14704.8	-0.259696	1.2115	0.0000000E+000	-1.4712
3	0	14705.3	-0.259467	1.2114	0.0000000E+000	-1.47087
3	0	14705.8	-0.259196	1.2114	0.0000000E+000	-1.4706
3	0	14706.3	-0.258891	1.21123	0.0000000E+000	-1.47012
3	0	14706.8	-0.25852	1.21116	0.0000000E+000	-1.46968
3	0	14707.3	-0.258371	1.21119	0.0000000E+000	-1.46957
3	0	14707.8	-0.258069	1.21113	0.0000000E+000	-1.46919
3	0	14708.3	-0.257515	1.21116	0.0000000E+000	-1.46868
3	0	14708.8	-0.25729	1.21102	0.0000000E+000	-1.46831
3	0	14709.3	-0.256958	1.21113	0.0000000E+000	-1.46808
3	0	14709.8	-0.256885	1.21116	0.0000000E+000	-1.46805
3	0	14710.3	-0.256297	1.21106	0.0000000E+000	-1.46735
3	0	14710.8	-0.255976	1.21123	0.0000000E+000	-1.4672
3	0	14711.3	-0.25585	1.21109	0.0000000E+000	-1.46694
3	0	14711.8	-0.255456	1.21113	0.0000000E+000	-1.46658
3	0	14712.3	-0.255235	1.21099	0.0000000E+000	-1.46622
3	0	14712.8	-0.254815	1.21113	0.0000000E+000	-1.46594
3	0	14713.3	-0.254742	1.21061	0.0000000E+000	-1.46535
3	0	14713.8	-0.254589	1.21082	0.0000000E+000	-1.46541
3	0	14714.3	-0.254242	1.21106	0.0000000E+000	-1.4653
3	0	14714.8	-0.253959	1.21085	0.0000000E+000	-1.46481
3	0	14715.3	-0.253818	1.21064	0.0000000E+000	-1.46446
3	0	14715.8	-0.253474	1.21068	0.0000000E+000	-1.46415
3	0	14716.3	-0.25339	1.21044	0.0000000E+000	-1.46383
3	0	14716.8	-0.252973	1.21064	0.0000000E+000	-1.46362
3	0	14717.3	-0.25232	1.21099	0.0000000E+000	-1.46331
3	0	14717.8	-0.252133	1.21092	0.0000000E+000	-1.46305
3	0	14718.3	-0.251915	1.21078	0.0000000E+000	-1.4627
3	0	14718.8	-0.251858	1.21044	0.0000000E+000	-1.4623
3	0	14719.3	-0.251614	1.21037	0.0000000E+000	-1.46198
3	0	14719.8	-0.251277	1.2102	0.0000000E+000	-1.46148
3	0	14720.3	-0.250976	1.21054	0.0000000E+000	-1.46152
3	0	14720.8	-0.250685	1.21051	0.0000000E+000	-1.46119
3	0	14721.3	-0.250578	1.21037	0.0000000E+000	-1.46095
3	0	14721.8	-0.250185	1.2104	0.0000000E+000	-1.46059
3	0	14722.3	-0.249998	1.21037	0.0000000E+000	-1.46037
3	0	14722.8	-0.249917	1.21044	0.0000000E+000	-1.46036
3	0	14723.3	-0.249707	1.21027	0.0000000E+000	-1.45997
3	0	14723.8	-0.249459	1.21009	0.0000000E+000	-1.45955
3	0	14724.3	-0.24897	1.21016	0.0000000E+000	-1.45913
3	0	14724.8	-0.248622	1.21051	0.0000000E+000	-1.45913
3	0	14725.3	-0.248481	1.2103	0.0000000E+000	-1.45878
3	0	14725.8	-0.248248	1.21037	0.0000000E+000	-1.45862
3	0	14726.3	-0.247992	1.2104	0.0000000E+000	-1.4584
3	0	14726.8	-0.24779	1.2102	0.0000000E+000	-1.45799
3	0	14727.3	-0.247732	1.2102	0.0000000E+000	-1.45793
3	0	14727.8	-0.247217	1.2102	0.0000000E+000	-1.45741
3	0	14728.3	-0.24706	1.21034	0.0000000E+000	-1.4574
3	0	14728.8	-0.246942	1.20996	0.0000000E+000	-1.4569
3	0	14729.3	-0.246617	1.21013	0.0000000E+000	-1.45675
3	0	14729.8	-0.246204	1.2102	0.0000000E+000	-1.4564
3	0	14730.3	-0.245907	1.21034	0.0000000E+000	-1.45624
3	0	14730.8	-0.245765	1.21023	0.0000000E+000	-1.456
3	0	14731.3	-0.245834	1.2102	0.0000000E+000	-1.45603
3	0	14731.8	-0.245651	1.20985	0.0000000E+000	-1.4555
3	0	14732.3	-0.245051	1.21013	0.0000000E+000	-1.45518
3	0	14732.8	-0.245089	1.21016	0.0000000E+000	-1.45525
3	0	14733.3	-0.244715	1.2102	0.0000000E+000	-1.45491
3	0	14733.8	-0.244619	1.20979	0.0000000E+000	-1.4544
3	0	14734.3	-0.244394	1.20982	0.0000000E+000	-1.45421
3	0	14734.8	-0.243893	1.20985	0.0000000E+000	-1.45375
3	0	14735.3	-0.24392	1.20982	0.0000000E+000	-1.45374
3	0	14735.8	-0.243886	1.20958	0.0000000E+000	-1.45347
3	0	14736.3	-0.243584	1.20955	0.0000000E+000	-1.45313
3	0	14736.8	-0.24337	1.20992	0.0000000E+000	-1.45329
3	0	14737.3	-0.243015	1.20975	0.0000000E+000	-1.45277
3	0	14737.8	-0.242854	1.20989	0.0000000E+000	-1.45274
3	0	14738.3	-0.24253	1.20982	0.0000000E+000	-1.45235
3	0	14738.8	-0.242385	1.20992	0.0000000E+000	-1.45231
3	0	14739.3	-0.242071	1.20982	0.0000000E+000	-1.45189
3	0	14739.8	-0.241804	1.20972	0.0000000E+000	-1.45152
3	0	14740.3	-0.241762	1.20968	0.0000000E+000	-1.45144
3	0	14740.8	-0.241307	1.20989	0.0000000E+000	-1.4512
3	0	14741.3	-0.241319	1.20979	0.0000000E+000	-1.4511
3	0	14741.8	-0.241189	1.20968	0.0000000E+000	-1.45087
3	0	14742.3	-0.24078	1.20979	0.0000000E+000	-1.45057
3	0	14742.8	-0.24073	1.20951	0.0000000E+000	-1.45024
3	0	14743.3	-0.240314	1.20985	0.0000000E+000	-1.45017
3	0	14743.8	-0.240349	1.20992	0.0000000E+000	-1.45027
3	0	14744.3	-0.240093	1.20948	0.0000000E+000	-1.44957
3	0	14744.8	-0.239974	1.20951	0.0000000E+000	-1.44948
3	0	14745.3	-0.239745	1.20941	0.0000000E+000	-1.44915
3	0	14745.8	-0.239313	1.20958	0.0000000E+000	-1.44889
3	0	14746.3	-0.239382	1.20951	0.0000000E+000	-1.44889
3	0	14746.8	-0.239038	1.20968	0.0000000E+000	-1.44872
3	0	14747.3	-0.238786	1.20958	0.0000000E+000	-1.44837
3	0	14747.8	-0.23874	1.20955	0.0000000E+000	-1.44829
3	0	14748.3	-0.238255	1.20985	0.0000000E+000	-1.44811
3	0	14748.8	-0.238374	1.20965	0.0000000E+000	-1.44802
3	0	14749.3	-0.23832	1.20937	0.0000000E+000	-1.44769
3	0	14749.8	-0.23816	1.20961	0.0000000E+000	-1.44777
3	0	14750.3	-0.237824	1.20965	0.0000000E+000	-1.44747
3	0	14750.8	-0.237751	1.20944	0.0000000E+000	-1.44719
3	0	14751.3	-0.237545	1.20924	0.0000000E+000	-1.44678
3	0	14751.8	-0.237396	1.20937	0.0000000E+000	-1.44677
3	0	14752.3	-0.236945	1.20958	0.0000000E+000	-1.44652
3	0	14752.8	-0.236899	1.2093	0.0000000E+000	-1.4462
3	0	14753.3	-0.236494	1.20944	0.0000000E+000	-1.44594
3	0	14753.8	-0.236234	1.20941	0.0000000E+000	-1.44564
3	0	14754.3	-0.236147	1.20948	0.0000000E+000	-1.44562
3	0	14754.8	-0.236215	1.20917	0.0000000E+000	-1.44538
3	0	14755.3	-0.236078	1.20944	0.0000000E+000	-1.44552
3	0	14755.8	-0.235654	1.20941	0.0000000E+000	-1.44506
3	0	14756.3	-0.235646	1.2093	0.0000000E+000	-1.44495
3	0	14756.8	-0.235299	1.2092	0.0000000E+000	-1.4445
3	0	14757.3	-0.235337	1.2091	0.0000000E+000	-1.44444
3	0	14757.8	-0.235264	1.20924	0.0000000E+000	-1.4445
3	0	14758.3	-0.235142	1.20917	0.0000000E+000	-1.44431
3	0	14758.8	-0.234745	1.20896	0.0000000E+000	-1.44371
3	0	14759.3	-0.234619	1.20924	0.0000000E+000	-1.44385
3	0	14759.8	-0.234447	1.20917	0.0000000E+000	-1.44361
3	0	14760.3	-0.234183	1.2091	0.0000000E+000	-1.44328
3	0	14760.8	-0.233977	1.20955	0.0000000E+000	-1.44352
3	0	14761.3	-0.233839	1.20927	0.0000000E+000	-1.44311
3	0	14761.8	-0.233729	1.2092	0.0000000E+000	-1.44293
3	0	14762.3	-0.233637	1.20903	0.0000000E+000	-1.44267
3	0	14762.8	-0.233603	1.20882	0.0000000E+000	-1.44243
3	0	14763.3	-0.233461	1.20903	0.0000000E+000	-1.44249
3	0	14763.8	-0.232999	1.20889	0.0000000E+000	-1.44189
3	0	14764.3	-0.232865	1.20934	0.0000000E+000	-1.4422
3	0	14764.8	-0.23269	1.20917	0.0000000E+000	-1.44186
3	0	14765.3	-0.23272	1.2091	0.0000000E+000	-1.44182
3	0	14765.8	-0.232487	1.20869	0.0000000E+000	-1.44117
3	0	14766.3	-0.232109	1.2092	0.0000000E+000	-1.44131
3	0	14766.8	-0.232036	1.20937	0.0000000E+000	-1.44141
3	0	14767.3	-0.231918	1.209	0.0000000E+000	-1.44091
3	0	14767.8	-0.231528	1.20944	0.0000000E+000	-1.44097
3	0	14768.3	-0.231566	1.20896	0.0000000E+000	-1.44053
3	0	14768.8	-0.231559	1.20872	0.0000000E+000	-1.44028
3	0	14769.3	-0.231333	1.20893	0.0000000E+000	-1.44026
3	0	14769.8	-0.231349	1.20872	0.0000000E+000	-1.44007
3	0	14770.3	-0.230841	1.20906	0.0000000E+000	-1.4399
3	0	14770.8	-0.23065	1.209	0.0000000E+000	-1.43964
3	0	14771.3	-0.230508	1.20924	0.0000000E+000	-1.43974
3	0	14771.8	-0.230615	1.20855	0.0000000E+000	-1.43916
3	0	14772.3	-0.230451	1.20886	0.0000000E+000	-1.43931
3	0	14772.8	-0.2301	1.20896	0.0000000E+000	-1.43906
3	0	14773.3	-0.229832	1.2092	0.0000000E+000	-1.43903
3	0	14773.8	-0.230069	1.20889	0.0000000E+000	-1.43896
3	0	14774.3	-0.229775	1.20886	0.0000000E+000	-1.43863
3	0	14774.8	-0.229683	1.20889	0.0000000E+000	-1.43858
3	0	14775.3	-0.22942	1.209	0.0000000E+000	-1.43841
3	0	14775.8	-0.229546	1.20896	0.0000000E+000	-1.43851
3	0	14776.3	-0.229068	1.20893	0.0000000E+000	-1.43799
3	0	14776.8	-0.229087	1.209	0.0000000E+000	-1.43808
3	0	14777.3	-0.228831	1.20882	0.0000000E+000	-1.43765
3	0	14777.8	-0.22887	1.20896	0.0000000E+000	-1.43783
3	0	14778.3	-0.22835	1.20896	0.0000000E+000	-1.43731
3	0	14778.8	-0.228427	1.20886	0.0000000E+000	-1.43728
3	0	14779.3	-0.228274	1.20886	0.0000000E+000	-1.43713
3	0	14779.8	-0.228243	1.20872	0.0000000E+000	-1.43696
3	0	14780.3	-0.228186	1.20869	0.0000000E+000	-1.43687
3	0	14780.8	-0.228029	1.20872	0.0000000E+000	-1.43675
3	0	14781.3	-0.227712	1.20886	0.0000000E+000	-1.43657
3	0	14781.8	-0.227655	1.20862	0.0000000E+000	-1.43627
3	0	14782.3	-0.227617	1.20858	0.0000000E+000	-1.4362
3	0	14782.8	-0.227559	1.20851	0.0000000E+000	-1.43607
3	0	14783.3	-0.227197	1.20862	0.0000000E+000	-1.43581
3	0	14783.8	-0.226975	1.20889	0.0000000E+000	-1.43587
3	0	14784.3	-0.226929	1.20862	0.0000000E+000	-1.43555
3	0	14784.8	-0.226788	1.20917	0.0000000E+000	-1.43595
3	0	14785.3	-0.226772	1.20869	0.0000000E+000	-1.43546
3	0	14785.8	-0.226566	1.20882	0.0000000E+000	-1.43539
3	0	14786.3	-0.226425	1.20848	0.0000000E+000	-1.4349
3	0	14786.8	-0.226264	1.20848	0.0000000E+000	-1.43474
3	0	14787.3	-0.226031	1.20879	0.0000000E+000	-1.43482
3	0	14787.8	-0.226188	1.20848	0.0000000E+000	-1.43467
3	0	14788.3	-0.226234	1.20848	0.0000000E+000	-1.43471
3	0	14788.8	-0.225886	1.20869	0.0000000E+000	-1.43457
3	0	14789.3	-0.225546	1.20855	0.0000000E+000	-1.43409
3	0	14789.8	-0.225497	1.20875	0.0000000E+000	-1.43425
3	0	14790.3	-0.225302	1.20865	0.0000000E+000	-1.43395
3	0	14790.8	-0.225306	1.20858	0.0000000E+000	-1.43389
3	0	14791.3	-0.22518	1.20869	0.0000000E+000	-1.43387
3	0	14791.8	-0.225111	1.20855	0.0000000E+000	-1.43366
3	0	14792.3	-0.224863	1.20862	0.0000000E+000	-1.43348
3	0	14792.8	-0.224794	1.20862	0.0000000E+000	-1.43341
3	0	14793.3	-0.224538	1.20886	0.0000000E+000	-1.4334
3	0	14793.8	-0.224607	1.20845	0.0000000E+000	-1.43305
3	0	14794.3	-0.224652	1.20858	0.0000000E+000	-1.43324
3	0	14794.8	-0.224366	1.20838	0.0000000E+000	-1.43274
3	0	14795.3	-0.224129	1.20827	0.0000000E+000	-1.4324
3	0	14795.8	-0.224114	1.20827	0.0000000E+000	-1.43239
3	0	14796.3	-0.223793	1.20862	0.0000000E+000	-1.43241
3	0	14796.8	-0.223739	1.20875	0.0000000E+000	-1.43249
3	0	14797.3	-0.223728	1.20838	0.0000000E+000	-1.4321
3	0	14797.8	-0.223762	1.20841	0.0000000E+000	-1.43217
3	0	14798.3	-0.223411	1.20827	0.0000000E+000	-1.43168
3	0	14798.8	-0.223361	1.20845	0.0000000E+000	-1.43181
3	0	14799.3	-0.223178	1.20834	0.0000000E+000	-1.43152
3	0	14799.8	-0.223277	1.2082	0.0000000E+000	-1.43148
3	0	14800.3	-0.222819	1.20845	0.0000000E+000	-1.43126
3	0	14800.8	-0.222643	1.20851	0.0000000E+000	-1.43116
3	0	14801.3	-0.222551	1.20848	0.0000000E+000	-1.43103
3	0	14801.8	-0.222456	1.20869	0.0000000E+000	-1.43114
3	0	14802.3	-0.222402	1.20872	0.0000000E+000	-1.43112
3	0	14802.8	-0.222406	1.20845	0.0000000E+000	-1.43085
3	0	14803.3	-0.222181	1.20838	0.0000000E+000	-1.43056
3	0	14803.8	-0.222047	1.20824	0.0000000E+000	-1.43029
3	0	14804.3	-0.222062	1.20834	0.0000000E+000	-1.4304
3	0	14804.8	-0.22194	1.20824	0.0000000E+000	-1.43018
3	0	14805.3	-0.221787	1.20838	0.0000000E+000	-1.43016
3	0	14805.8	-0.221486	1.20862	0.0000000E+000	-1.4301
3	0	14806.3	-0.221302	1.20855	0.0000000E+000	-1.42985
3	0	14806.8	-0.221184	1.20848	0.0000000E+000	-1.42966
3	0	14807.3	-0.221241	1.20803	0.0000000E+000	-1.42927
3	0	14807.8	-0.221081	1.20845	0.0000000E+000	-1.42953
3	0	14808.3	-0.221039	1.20834	0.0000000E+000	-1.42938
3	0	14808.8	-0.220561	1.20879	0.0000000E+000	-1.42935
3	0	14809.3	-0.220619	1.20827	0.0000000E+000	-1.42889
3	0	14809.8	-0.220592	1.20841	0.0000000E+000	-1.429
3	0	14810.3	-0.220534	1.20838	0.0000000E+000	-1.42891
3	0	14810.8	-0.220443	1.20838	0.0000000E+000	-1.42882
3	0	14811.3	-0.2205	1.2082	0.0000000E+000	-1.42871
3	0	14811.8	-0.220397	1.2082	0.0000000E+000	-1.4286
3	0	14812.3	-0.219973	1.20869	0.0000000E+000	-1.42866
3	0	14812.8	-0.220164	1.20796	0.0000000E+000	-1.42813
3	0	14813.3	-0.219679	1.20855	0.0000000E+000	-1.42823
3	0	14813.8	-0.21961	1.20851	0.0000000E+000	-1.42812
3	0	14814.3	-0.219347	1.20872	0.0000000E+000	-1.42807
3	0	14814.8	-0.219392	1.20841	0.0000000E+000	-1.4278
3	0	14815.3	-0.219469	1.20841	0.0000000E+000	-1.42788
3	0	14815.8	-0.21935	1.20824	0.0000000E+000	-1.42759
3	0	14816.3	-0.219446	1.20814	0.0000000E+000	-1.42758
3	0	14816.8	-0.219236	1.20824	0.0000000E+000	-1.42748
3	0	14817.3	-0.219072	1.2082	0.0000000E+000	-1.42728
3	0	14817.8	-0.218739	1.20845	0.0000000E+000	-1.42718
3	0	14818.3	-0.218712	1.20838	0.0000000E+000	-1.42709
3	0	14818.8	-0.218865	1.20824	0.0000000E+000	-1.4271
3	0	14819.3	-0.218808	1.2082	0.0000000E+000	-1.42701
3	0	14819.8	-0.218716	1.20783	0.0000000E+000	-1.42654
3	0	14820.3	-0.218285	1.20841	0.0000000E+000	-1.4267
3	0	14820.8	-0.218456	1.2081	0.0000000E+000	-1.42656
3	0	14821.3	-0.218323	1.20793	0.0000000E+000	-1.42625
3	0	14821.8	-0.218307	1.20817	0.0000000E+000	-1.42648
3	0	14822.3	-0.218315	1.20793	0.0000000E+000	-1.42625
3	0	14822.8	-0.218235	1.20783	0.0000000E+000	-1.42606
3	0	14823.3	-0.21796	1.2081	0.0000000E+000	-1.42606
3	0	14823.8	-0.217719	1.20831	0.0000000E+000	-1.42603
3	0	14824.3	-0.217635	1.20796	0.0000000E+000	-1.4256
3	0	14824.8	-0.217559	1.20824	0.0000000E+000	-1.4258
3	0	14825.3	-0.217299	1.20851	0.0000000E+000	-1.42581
3	0	14825.8	-0.217104	1.20855	0.0000000E+000	-1.42565
3	0	14826.3	-0.217089	1.20834	0.0000000E+000	-1.42543
3	0	14826.8	-0.217005	1.20803	0.0000000E+000	-1.42504
3	0	14827.3	-0.21707	1.20807	0.0000000E+000	-1.42514
3	0	14827.8	-0.216932	1.20817	0.0000000E+000	-1.4251
3	0	14828.3	-0.216909	1.20793	0.0000000E+000	-1.42484
3	0	14828.8	-0.216776	1.20783	0.0000000E+000	-1.4246
3	0	14829.3	-0.216665	1.20831	0.0000000E+000	-1.42497
3	0	14829.8	-0.216558	1.2082	0.0000000E+000	-1.42476
3	0	14830.3	-0.216504	1.2079	0.0000000E+000	-1.4244
3	0	14830.8	-0.216191	1.20831	0.0000000E+000	-1.4245
3	0	14831.3	-0.216149	1.2082	0.0000000E+000	-1.42435
3	0	14831.8	-0.216157	1.2082	0.0000000E+000	-1.42436
3	0	14832.3	-0.216084	1.208	0.0000000E+000	-1.42408
3	0	14832.8	-0.215901	1.20824	0.0000000E+000	-1.42414
3	0	14833.3	-0.215931	1.20796	0.0000000E+000	-1.4239
3	0	14833.8	-0.215901	1.208	0.0000000E+000	-1.4239
3	0	14834.3	-0.215687	1.20807	0.0000000E+000	-1.42375
3	0	14834.8	-0.215569	1.20817	0.0000000E+000	-1.42374
3	0	14835.3	-0.215378	1.20827	0.0000000E+000	-1.42365
3	0	14835.8	-0.215282	1.20831	0.0000000E+000	-1.42359
3	0	14836.3	-0.215404	1.2079	0.0000000E+000	-1.4233
3	0	14836.8	-0.21519	1.208	0.0000000E+000	-1.42319
3	0	14837.3	-0.215152	1.20772	0.0000000E+000	-1.42288
3	0	14837.8	-0.215148	1.20807	0.0000000E+000	-1.42322
3	0	14838.3	-0.214942	1.2081	0.0000000E+000	-1.42304
3	0	14838.8	-0.214961	1.2079	0.0000000E+000	-1.42286
3	0	14839.3	-0.214896	1.20783	0.0000000E+000	-1.42272
3	0	14839.8	-0.214541	1.20793	0.0000000E+000	-1.42247
3	0	14840.3	-0.214656	1.208	0.0000000E+000	-1.42265
3	0	14840.8	-0.214491	1.20783	0.0000000E+000	-1.42232
3	0	14841.3	-0.214404	1.20807	0.0000000E+000	-1.42247
3	0	14841.8	-0.214235	1.20827	0.0000000E+000	-1.42251
3	0	14842.3	-0.214209	1.20779	0.0000000E+000	-1.422
3	0	14842.8	-0.214159	1.20783	0.0000000E+000	-1.42199
3	0	14843.3	-0.214148	1.20766	0.0000000E+000	-1.4218
3	0	14843.8	-0.213651	1.20827	0.0000000E+000	-1.42192
3	0	14844.3	-0.213643	1.20803	0.0000000E+000	-1.42168
3	0	14844.8	-0.213773	1.20762	0.0000000E+000	-1.42139
3	0	14845.3	-0.213831	1.20752	0.0000000E+000	-1.42135
3	0	14845.8	-0.213666	1.20783	0.0000000E+000	-1.42149
3	0	14846.3	-0.213678	1.20796	0.0000000E+000	-1.42164
3	0	14846.8	-0.213544	1.20772	0.0000000E+000	-1.42127
3	0	14847.3	-0.2132	1.20824	0.0000000E+000	-1.42144
3	0	14847.8	-0.213254	1.20796	0.0000000E+000	-1.42122
3	0	14848.3	-0.212899	1.2081	0.0000000E+000	-1.421
3	0	14848.8	-0.212818	1.2081	0.0000000E+000	-1.42092
3	0	14849.3	-0.212868	1.20803	0.0000000E+000	-1.4209
3	0	14849.8	-0.212761	1.2081	0.0000000E+000	-1.42086
3	0	14850.3	-0.212635	1.20814	0.0000000E+000	-1.42077
3	0	14850.8	-0.212681	1.20796	0.0000000E+000	-1.42065
3	0	14851.3	-0.212471	1.20796	0.0000000E+000	-1.42044
3	0	14851.8	-0.212345	1.20807	0.0000000E+000	-1.42041
3	0	14852.3	-0.212276	1.2082	0.0000000E+000	-1.42048
3	0	14852.8	-0.212089	1.20827	0.0000000E+000	-1.42036
3	0	14853.3	-0.212345	1.20796	0.0000000E+000	-1.42031
3	0	14853.8	-0.212054	1.208	0.0000000E+000	-1.42005
3	0	14854.3	-0.211848	1.2081	0.0000000E+000	-1.41995
3	0	14854.8	-0.21189	1.20827	0.0000000E+000	-1.42016
3	0	14855.3	-0.211733	1.20838	0.0000000E+000	-1.42011
3	0	14855.8	-0.211898	1.20807	0.0000000E+000	-1.41997
3	0	14855.8	-0.211959	1.20814	0.0000000E+000	-1.4201