File: h.mpt
EC-Lab ASCII FILE
Nb header lines : 65

Cyclic Voltammetry

Run on channel : 3 (SN 4895)
User :
Electrode connection : standard
Ewe ctrl range : min = -10.00 V, max = 10.00 V
Ewe,I filtering : 50 kHz
Safety Limits :
	Do not start on E overload
Channel : Grounded
Acquisition started on : 06/04/2018 12:45:52
Technique started on : 06/04/2018 16:53:29
Saved on :
	File : GF201805_21_09_CV.mpr
	Directory : C:\Users\L004\Documents\EC-Lab\Data\2018\06 June\04June_Erdem_NO3R\
	Host : 192.109.209.127
Device : VMP-300 (SN 0241)
Address : 192.109.209.128
EC-Lab for windows v11.12 (software)
Internet server v11.12 (firmware)
Command interpretor v11.12 (firmware)
Electrode material : 201805_21
Initial state : 500rpm stirring - N2 blanket
Electrolyte : 30mM NaClO4 100ppm NaNO3
Comments : Vacuum in 90mL
Comments : 1 g/L GO 70% 130ºC 8h
Current amplifier : B-2A30V
Cable : special
Reference electrode : Ag/AgCl Ref #7 (0.208 V)
Electrode surface area : 2.000 cm²
Characteristic mass : 1.000 g
Equivalent Weight : 0.000 g/eq.
Density : 0.000 g/cm3
Record Ece
Text export
Cycle Definition : Charge/Discharge alternance
Ei (V)              0.000
vs.                 Eoc
dE/dt               50.000
dE/dt unit          mV/s
E1 (V)              -1.800
vs.                 Ref
Step percent        50
N                   10
E range min (V)     -10.000
E range max (V)     10.000
I Range             100 mA
I Range min         10 nA
I Range max         10 mA
I Range init        100 nA
Bandwidth           5
E2 (V)              1.200
vs.                 Ref
nc cycles           2
Reverse Scan        1
Ef (V)              0.000
vs.                 Eoc

Number of loops : 1
Loop 0 from point number 0 to 5031

mode	ox/red	error	control changes	counter inc.	time/s	control/V	Ewe/V	<I>/mA	cycle number	(Q-Qo)/C	<Ece>/V	Rcmp/Ohm	P/W	Ewe-Ece/V
2	0	0	0	0	14857.3	-0.211798	-0.211507	0.000325738	1	0.0000000E+000	1.21164	0.0000000E+000	-6.88956e-08	-1.42315
2	0	0	1	0	14858	-0.246971	-0.246772	-0.486436	1	-0.000254736	1.63232	0.0000000E+000	0.000120039	-1.87909
2	0	0	0	0	14858.8	-0.28364	-0.283454	-0.551292	1	-0.00063743	1.7321	0.0000000E+000	0.000156266	-2.01555
2	0	0	1	0	14859.5	-0.320309	-0.320181	-0.630176	1	-0.00107476	1.78871	0.0000000E+000	0.000201771	-2.10889
2	0	0	1	0	14860.2	-0.356971	-0.356803	-0.708344	1	-0.00156616	1.83463	0.0000000E+000	0.000252739	-2.19144
2	0	0	0	0	14861	-0.39364	-0.393477	-0.803188	1	-0.00212481	1.88687	0.0000000E+000	0.000316036	-2.28035
2	0	0	1	0	14861.7	-0.430309	-0.430207	-0.894791	1	-0.00275307	1.93567	0.0000000E+000	0.000384946	-2.36588
2	0	0	0	0	14862.4	-0.466982	-0.466879	-0.974534	1	-0.00344141	1.97683	0.0000000E+000	0.000454989	-2.44371
2	0	0	1	0	14863.2	-0.503651	-0.503552	-1.04115	1	-0.00418144	2.01107	0.0000000E+000	0.000524275	-2.51462
2	0	0	0	0	14863.9	-0.54032	-0.540181	-1.09662	1	-0.00496635	2.03785	0.0000000E+000	0.000592374	-2.57803
2	0	0	1	0	14864.6	-0.576989	-0.576891	-1.1559	1	-0.00579569	2.06709	0.0000000E+000	0.000666831	-2.64398
2	0	0	0	0	14865.4	-0.613661	-0.613521	-1.22433	1	-0.00667265	2.10019	0.0000000E+000	0.000751154	-2.71371
2	0	0	1	0	14866.1	-0.650331	-0.650194	-1.31701	1	-0.00760656	2.14499	0.0000000E+000	0.000856309	-2.79519
2	0	0	0	0	14866.8	-0.687	-0.686856	-1.43116	1	-0.00861517	2.19837	0.0000000E+000	0.000982998	-2.88523
2	0	0	0	0	14867.6	-0.723664	-0.723555	-1.57257	1	-0.00971982	2.26461	0.0000000E+000	0.00113784	-2.98817
2	0	0	1	0	14868.3	-0.760331	-0.760239	-1.72247	1	-0.0109318	2.33392	0.0000000E+000	0.00130949	-3.09415
2	0	0	0	0	14869	-0.797	-0.796868	-1.84511	1	-0.0122431	2.38973	0.0000000E+000	0.00147031	-3.1866
2	0	0	1	0	14869.8	-0.833669	-0.833551	-1.93741	1	-0.013636	2.43099	0.0000000E+000	0.00161493	-3.26454
2	0	0	0	0	14870.5	-0.870342	-0.870263	-2.0245	1	-0.0150938	2.46986	0.0000000E+000	0.00176185	-3.34012
2	0	0	1	0	14871.2	-0.907011	-0.906898	-2.09855	1	-0.0166095	2.5022	0.0000000E+000	0.00190317	-3.4091
2	0	0	0	0	14872	-0.94368	-0.943583	-2.14682	1	-0.0181716	2.52229	0.0000000E+000	0.0020257	-3.46587
2	0	0	1	0	14872.7	-0.980349	-0.980256	-2.20625	1	-0.0197729	2.54797	0.0000000E+000	0.00216269	-3.52822
2	0	0	0	0	14873.4	-1.01702	-1.01693	-2.25724	1	-0.0214129	2.56937	0.0000000E+000	0.00229545	-3.58629
2	0	0	1	0	14874.2	-1.05369	-1.05362	-2.33326	1	-0.0231002	2.60202	0.0000000E+000	0.00245837	-3.65564
2	0	0	0	0	14874.9	-1.09036	-1.0903	-2.42961	1	-0.0248437	2.64377	0.0000000E+000	0.002649	-3.73407
2	0	0	0	0	14875.6	-1.12703	-1.12696	-2.56347	1	-0.0266705	2.70179	0.0000000E+000	0.00288892	-3.82875
2	0	0	1	0	14876.4	-1.16369	-1.16359	-2.75899	1	-0.0286207	2.78568	0.0000000E+000	0.00321033	-3.94927
2	0	0	0	0	14877.1	-1.20036	-1.20026	-2.99931	1	-0.030734	2.88918	0.0000000E+000	0.00359997	-4.08944
2	0	0	1	0	14877.8	-1.23703	-1.23691	-3.30604	1	-0.0330451	3.02041	0.0000000E+000	0.00408927	-4.25732
2	0	0	0	0	14878.6	-1.2737	-1.27358	-3.73676	1	-0.0356176	3.20331	0.0000000E+000	0.00475905	-4.47689
2	0	0	1	0	14879.3	-1.31037	-1.31021	-4.33998	1	-0.038574	3.45848	0.0000000E+000	0.00568626	-4.76869
2	0	0	0	0	14880	-1.34704	-1.3469	-5.15932	1	-0.0420449	3.80212	0.0000000E+000	0.00694909	-5.14902
2	0	0	1	0	14880.8	-1.38371	-1.38354	-6.14269	1	-0.0461807	4.2099	0.0000000E+000	0.00849865	-5.59344
2	0	0	0	0	14881.5	-1.42038	-1.42015	-7.29867	1	-0.0511064	4.68437	0.0000000E+000	0.0103652	-6.10452
2	0	0	1	0	14882.2	-1.45705	-1.45686	-8.61568	1	-0.0569431	5.21863	0.0000000E+000	0.0125518	-6.67548
2	0	0	0	0	14883	-1.49372	-1.49349	-10.1061	1	-0.0638052	5.81533	0.0000000E+000	0.0150933	-7.30882
2	0	0	0	0	14883.7	-1.53038	-1.5301	-11.7102	1	-0.0718009	6.45312	0.0000000E+000	0.0179177	-7.98322
2	0	0	1	0	14884.4	-1.56705	-1.56678	-13.4888	1	-0.0810383	7.15495	0.0000000E+000	0.0211339	-8.72173
2	0	0	0	0	14885.2	-1.60372	-1.60344	-15.361	1	-0.0916115	7.88781	0.0000000E+000	0.0246305	-9.49126
2	0	0	1	0	14885.9	-1.64039	-1.6401	-17.3593	1	-0.103609	8.66174	0.0000000E+000	0.028471	-10.3018
2	0	0	0	0	14886.6	-1.67706	-1.67675	-19.4662	1	-0.117125	9.4708	0.0000000E+000	0.0326401	-11.1476
2	0	0	1	0	14887.4	-1.71373	-1.71347	-21.6881	1	-0.132234	10.3111	0.0000000E+000	0.0371619	-12.0246
2	0	0	0	0	14888.1	-1.7504	-1.75009	-24.0073	1	-0.149003	11.1825	0.0000000E+000	0.0420147	-12.9326
2	0	0	1	0	14888.8	-1.78707	-1.78674	-26.398	1	-0.167488	12.0607	0.0000000E+000	0.0471663	-13.8474
2	1	0	1	0	14889.5	-1.78141	-1.78134	-25.9034	1	-0.184209	11.8226	0.0000000E+000	0.0461427	-13.6039
2	1	0	0	0	14890.2	-1.74473	-1.74473	-23.2255	1	-0.202197	10.784	0.0000000E+000	0.0405222	-12.5287
2	1	0	1	0	14890.9	-1.70806	-1.70809	-20.6991	1	-0.218296	9.79054	0.0000000E+000	0.0353559	-11.4986
2	1	0	0	0	14891.7	-1.67139	-1.67127	-18.2533	1	-0.232572	8.83997	0.0000000E+000	0.0305063	-10.5112
2	1	0	1	0	14892.4	-1.63472	-1.63462	-16.0242	1	-0.245125	7.95579	0.0000000E+000	0.0261934	-9.59041
2	1	0	0	0	14893.1	-1.59805	-1.59796	-13.9138	1	-0.256074	7.14386	0.0000000E+000	0.0222337	-8.74182
2	1	0	1	0	14893.9	-1.56138	-1.56127	-11.9561	1	-0.265544	6.38098	0.0000000E+000	0.0186667	-7.94225
2	1	0	0	0	14894.6	-1.52471	-1.52463	-10.1477	1	-0.273631	5.67386	0.0000000E+000	0.0154714	-7.19848
2	1	0	0	0	14895.3	-1.48805	-1.48796	-8.54069	1	-0.280458	5.04166	0.0000000E+000	0.0127082	-6.52961
2	1	0	1	0	14896.1	-1.45138	-1.45127	-7.09523	1	-0.28617	4.47195	0.0000000E+000	0.0102971	-5.92323
2	1	0	0	0	14896.8	-1.41471	-1.41461	-5.86236	1	-0.290902	3.98044	0.0000000E+000	0.00829295	-5.39505
2	1	0	1	0	14897.5	-1.37805	-1.37787	-4.79482	1	-0.294799	3.55218	0.0000000E+000	0.00660665	-4.93005
2	1	0	0	0	14898.3	-1.34137	-1.34127	-3.89817	1	-0.297974	3.18946	0.0000000E+000	0.00522848	-4.53073
2	1	0	1	0	14899	-1.3047	-1.30453	-3.15795	1	-0.300549	2.88751	0.0000000E+000	0.00411963	-4.19204
2	1	0	0	0	14899.7	-1.26803	-1.2679	-2.5505	1	-0.302631	2.6362	0.0000000E+000	0.00323378	-3.9041
2	1	0	1	0	14900.5	-1.23136	-1.2312	-2.05395	1	-0.30431	2.42777	0.0000000E+000	0.00252883	-3.65898
2	1	0	0	0	14901.2	-1.19469	-1.19455	-1.6595	1	-0.305663	2.26002	0.0000000E+000	0.00198236	-3.45457
2	1	0	1	0	14901.9	-1.15802	-1.15786	-1.33613	1	-0.306752	2.12009	0.0000000E+000	0.00154706	-3.27795
2	1	0	0	0	14902.7	-1.12135	-1.12121	-1.07673	1	-0.30763	2.00553	0.0000000E+000	0.00120724	-3.12674
2	1	0	0	0	14903.4	-1.08469	-1.08455	-0.863184	1	-0.308335	1.90882	0.0000000E+000	0.000936166	-2.99337
2	1	0	1	0	14904.1	-1.04802	-1.04787	-0.692032	1	-0.3089	1.82834	0.0000000E+000	0.00072516	-2.87621
2	1	0	0	0	14904.9	-1.01135	-1.01117	-0.552805	1	-0.309353	1.76128	0.0000000E+000	0.000558981	-2.77245
2	1	0	1	0	14905.6	-0.974684	-0.974474	-0.426056	1	-0.309711	1.69714	0.0000000E+000	0.000415181	-2.67162
2	1	0	0	0	14906.3	-0.938013	-0.937827	-0.295507	1	-0.309972	1.62685	0.0000000E+000	0.000277135	-2.56468
2	1	0	1	0	14907.1	-0.901344	-0.901135	-0.200611	1	-0.310148	1.56982	0.0000000E+000	0.000180778	-2.47095
2	1	0	0	0	14907.8	-0.864675	-0.864501	-0.13336	1	-0.310263	1.52396	0.0000000E+000	0.00011529	-2.38846
2	1	0	1	0	14908.5	-0.828002	-0.827801	-0.0850301	1	-0.310336	1.48544	0.0000000E+000	7.03879e-05	-2.31324
2	1	0	0	0	14909.3	-0.791333	-0.791174	-0.0353023	1	-0.310378	1.44513	0.0000000E+000	2.79302e-05	-2.2363
2	1	0	1	0	14910	-0.754664	-0.754546	0.0149568	1	-0.310384	1.3968	0.0000000E+000	-1.12856e-05	-2.15134
2	1	0	0	0	14910.7	-0.717995	-0.717854	0.0932983	1	-0.310343	1.31767	0.0000000E+000	-6.69746e-05	-2.03553
2	1	0	0	0	14911.5	-0.681333	-0.681195	0.170337	1	-0.310245	1.21574	0.0000000E+000	-0.000116032	-1.89694
2	1	0	1	0	14912.2	-0.644664	-0.644481	0.258619	1	-0.310085	1.08052	0.0000000E+000	-0.000166675	-1.725
2	1	0	0	0	14912.9	-0.607994	-0.607863	0.336451	1	-0.309862	0.93409	0.0000000E+000	-0.000204516	-1.54195
2	1	0	1	0	14913.7	-0.571323	-0.571204	0.415044	1	-0.309581	0.791101	0.0000000E+000	-0.000237075	-1.36231
2	1	0	0	0	14914.4	-0.534653	-0.534516	0.480479	1	-0.309248	0.669677	0.0000000E+000	-0.000256824	-1.20419
2	1	0	1	0	14915.1	-0.497984	-0.497853	0.557387	1	-0.308863	0.558448	0.0000000E+000	-0.000277497	-1.0563
2	1	0	0	0	14915.9	-0.461315	-0.461178	0.624341	1	-0.308426	0.463076	0.0000000E+000	-0.000287932	-0.924253
2	1	0	1	0	14916.6	-0.424642	-0.424496	0.689653	1	-0.30794	0.377432	0.0000000E+000	-0.000292755	-0.801928
2	1	0	0	0	14917.3	-0.387973	-0.387803	0.748009	1	-0.30741	0.301934	0.0000000E+000	-0.00029008	-0.689737
2	1	0	1	0	14918.1	-0.351304	-0.351115	0.817967	1	-0.306834	0.225519	0.0000000E+000	-0.0002872	-0.576634
2	1	0	0	0	14918.8	-0.314635	-0.314427	0.888022	1	-0.306205	0.15017	0.0000000E+000	-0.000279218	-0.464596
2	1	0	0	0	14919.5	-0.277973	-0.277733	0.952557	1	-0.305528	0.0794811	0.0000000E+000	-0.000264557	-0.357215
2	1	0	1	0	14920.3	-0.241304	-0.241079	1.01755	1	-0.304802	0.0102422	0.0000000E+000	-0.000245309	-0.251321
2	1	0	0	0	14921	-0.204634	-0.204431	1.07758	1	-0.304031	-0.053606	0.0000000E+000	-0.000220291	-0.150825
2	1	0	1	0	14921.7	-0.167962	-0.167765	1.12461	1	-0.303222	-0.106737	0.0000000E+000	-0.000188671	-0.0610286
2	1	0	0	0	14922.5	-0.131293	-0.131064	1.17524	1	-0.302379	-0.157418	0.0000000E+000	-0.000154032	0.0263545
2	1	0	1	0	14923.2	-0.0946238	-0.094425	1.2112	1	-0.301502	-0.196062	0.0000000E+000	-0.000114368	0.101637
2	1	0	0	0	14923.9	-0.0579548	-0.0577254	1.2525	1	-0.300596	-0.233532	0.0000000E+000	-7.23008e-05	0.175807
2	1	0	1	0	14924.7	-0.0212823	-0.0210442	1.29822	1	-0.29966	-0.268067	0.0000000E+000	-2.73201e-05	0.247023
2	1	0	0	0	14925.4	0.0153867	0.0156361	1.34006	1	-0.298691	-0.294528	0.0000000E+000	2.09534e-05	0.310164
2	1	0	1	0	14926.1	0.0520558	0.0523174	1.4017	1	-0.297684	-0.32645	0.0000000E+000	7.33334e-05	0.378767
2	1	0	0	0	14926.9	0.0887249	0.089006	1.47272	1	-0.296629	-0.361538	0.0000000E+000	0.000131081	0.450544
2	1	0	0	0	14927.6	0.125387	0.12567	1.56414	1	-0.295516	-0.407811	0.0000000E+000	0.000196566	0.533481
2	1	0	1	0	14928.3	0.162056	0.162375	1.65757	1	-0.294334	-0.456829	0.0000000E+000	0.000269149	0.619205
2	1	0	0	0	14929.1	0.198725	0.199025	1.76914	1	-0.293075	-0.516892	0.0000000E+000	0.000352104	0.715917
2	1	0	1	0	14929.8	0.235398	0.235699	1.89499	1	-0.29173	-0.587088	0.0000000E+000	0.000446647	0.822786
2	1	0	0	0	14930.5	0.272067	0.272353	2.02015	1	-0.290293	-0.659384	0.0000000E+000	0.000550194	0.931736
2	1	0	1	0	14931.3	0.308736	0.309013	2.1652	1	-0.288754	-0.745744	0.0000000E+000	0.000669074	1.05476
2	1	0	0	0	14932	0.345405	0.345732	2.32643	1	-0.287106	-0.843993	0.0000000E+000	0.000804323	1.18973
2	1	0	1	0	14932.7	0.382077	0.382426	2.50212	1	-0.285334	-0.954637	0.0000000E+000	0.000956875	1.33706
2	1	0	0	0	14933.5	0.418747	0.419051	2.69117	1	-0.283429	-1.07727	0.0000000E+000	0.00112774	1.49632
2	1	0	1	0	14934.2	0.455416	0.455739	2.90542	1	-0.281376	-1.22081	0.0000000E+000	0.00132411	1.67655
2	1	0	1	0	14934.9	0.492081	0.492414	3.13758	1	-0.279161	-1.38225	0.0000000E+000	0.00154499	1.87466
2	1	0	0	0	14935.7	0.528747	0.529068	3.39436	1	-0.276766	-1.56679	0.0000000E+000	0.00179584	2.09586
2	1	0	1	0	14936.4	0.565416	0.565694	3.69688	1	-0.274162	-1.79007	0.0000000E+000	0.0020913	2.35577
2	1	0	0	0	14937.1	0.602085	0.602419	4.02014	1	-0.271333	-2.03718	0.0000000E+000	0.00242181	2.6396
2	1	0	1	0	14937.9	0.638758	0.639051	4.3938	1	-0.268248	-2.33111	0.0000000E+000	0.00280786	2.97016
2	1	0	0	0	14938.6	0.675427	0.675716	4.81467	1	-0.264874	-2.67386	0.0000000E+000	0.00325335	3.34958
2	1	0	1	0	14939.3	0.712096	0.712385	5.30499	1	-0.261166	-3.08471	0.0000000E+000	0.0037792	3.7971
2	1	0	0	0	14940.1	0.748765	0.749065	5.88312	1	-0.257067	-3.58361	0.0000000E+000	0.00440684	4.33267
2	1	0	1	0	14940.8	0.785437	0.7857	6.59782	1	-0.252497	-4.22084	0.0000000E+000	0.00518391	5.00654
2	1	0	0	0	14941.5	0.822106	0.822367	7.45035	1	-0.247355	-5.00179	0.0000000E+000	0.00612692	5.82416
2	1	0	1	0	14942.3	0.858775	0.858961	8.49188	1	-0.241518	-5.95368	0.0000000E+000	0.0072942	6.81264
2	1	0	1	0	14943	0.895438	0.895571	9.74343	1	-0.234838	-7.22531	0.0000000E+000	0.00872594	8.12088
2	1	0	0	0	14943.7	0.932107	0.932157	11.2286	1	-0.227151	-8.68327	0.0000000E+000	0.0104668	9.61542
2	1	0	1	0	14944.5	0.968776	0.968772	12.9209	1	-0.218304	-10.4278	0.0000000E+000	0.0125175	11.3965
2	1	0	0	0	14945.2	1.00544	1.00538	14.8318	1	-0.208143	-12.5553	0.0000000E+000	0.0149115	13.5607
2	1	0	1	0	14945.9	1.04212	1.04204	16.9394	1	-0.196514	-15.0879	0.0000000E+000	0.0176516	16.1299
2	1	0	0	0	14946.7	1.07879	1.07865	19.1945	1	-0.183261	-18.0846	0.0000000E+000	0.0207042	19.1633
2	1	0	1	0	14947.4	1.11546	1.11527	21.5188	1	-0.168332	-21.4502	0.0000000E+000	0.0239992	22.5654
2	1	0	0	0	14948.1	1.15212	1.15172	23.9701	1	-0.151639	-25.2015	0.0000000E+000	0.0276069	26.3532
2	1	0	1	0	14948.9	1.1888	1.18824	26.5162	1	-0.133126	-29.4101	0.0000000E+000	0.0315077	30.5984
2	0	0	1	1	14949.5	1.17813	1.17858	25.7416	1	-0.115532	-29.9718	0.0000000E+000	0.0303387	31.1503
2	0	0	0	1	14950.3	1.14146	1.14207	23.0998	1	-0.0976319	-28.3175	0.0000000E+000	0.0263816	29.4596
2	0	0	1	1	14951	1.10479	1.10555	20.4887	1	-0.0816596	-26.3011	0.0000000E+000	0.0226513	27.4067
2	0	0	0	1	14951.7	1.06812	1.06883	17.9124	1	-0.0675844	-23.9667	0.0000000E+000	0.0191453	25.0355
2	0	0	1	1	14952.5	1.03145	1.03221	15.4264	1	-0.0553566	-21.4069	0.0000000E+000	0.0159232	22.4391
2	0	0	0	1	14953.2	0.994781	0.995459	13.0374	1	-0.0449242	-18.6912	0.0000000E+000	0.0129782	19.6867
2	0	0	1	1	14953.9	0.958108	0.958845	10.7606	1	-0.0362068	-15.8779	0.0000000E+000	0.0103177	16.8367
2	0	0	0	1	14954.7	0.921439	0.922217	8.59154	1	-0.0291279	-13.0022	0.0000000E+000	0.00792327	13.9245
2	0	0	1	1	14955.4	0.88477	0.885509	6.56961	1	-0.0235839	-10.1687	0.0000000E+000	0.00581745	11.0543
2	0	0	1	1	14956.1	0.848104	0.848848	4.75278	1	-0.0194498	-7.51795	0.0000000E+000	0.00403439	8.36679
2	0	0	0	1	14956.9	0.811439	0.812099	3.22182	1	-0.0165478	-5.21682	0.0000000E+000	0.00261644	6.02892
2	0	0	1	1	14957.6	0.77477	0.775319	2.01853	1	-0.0146564	-3.28773	0.0000000E+000	0.001565	4.06305
2	0	0	0	1	14958.3	0.738101	0.738757	1.20459	1	-0.0135036	-1.8009	0.0000000E+000	0.000889901	2.53966
2	0	0	1	1	14959.1	0.701428	0.701765	0.730431	1	-0.0128153	-0.563754	0.0000000E+000	0.000512591	1.26552
2	0	0	0	1	14959.8	0.664759	0.665032	0.473224	1	-0.0123859	-0.176756	0.0000000E+000	0.000314709	0.841788
2	0	0	1	1	14960.5	0.62809	0.628302	0.297412	1	-0.012111	0.0991113	0.0000000E+000	0.000186864	0.52919
2	0	0	0	1	14961.3	0.591421	0.591631	0.173775	1	-0.0119415	0.2978	0.0000000E+000	0.00010281	0.293831
2	0	0	1	1	14962	0.554749	0.554954	0.0780678	1	-0.0118484	0.451391	0.0000000E+000	4.33241e-05	0.103563
2	0	0	0	1	14962.7	0.51808	0.518242	-0.00820805	1	-0.0118239	0.591526	0.0000000E+000	-4.25376e-06	-0.0732837
2	0	0	1	1	14963.5	0.481411	0.481539	-0.0770923	1	-0.0118561	0.704083	0.0000000E+000	-3.7123e-05	-0.222543
2	0	0	1	1	14964.2	0.444748	0.444908	-0.142706	1	-0.0119385	0.814724	0.0000000E+000	-6.34912e-05	-0.369816
2	0	0	0	1	14964.9	0.408079	0.40823	-0.195274	1	-0.012067	0.906465	0.0000000E+000	-7.97168e-05	-0.498235
2	0	0	1	1	14965.7	0.37141	0.371559	-0.255757	1	-0.0122332	1.01559	0.0000000E+000	-9.50288e-05	-0.644028
2	0	0	0	1	14966.4	0.334741	0.334872	-0.298058	1	-0.0124371	1.10058	0.0000000E+000	-9.98112e-05	-0.765708
2	0	0	1	1	14967.1	0.298069	0.298148	-0.345223	1	-0.012674	1.19812	0.0000000E+000	-0.000102927	-0.899973
2	0	0	0	1	14967.9	0.2614	0.261501	-0.394219	1	-0.0129432	1.3002	0.0000000E+000	-0.000103089	-1.0387
2	0	0	1	1	14968.6	0.22473	0.224811	-0.426288	1	-0.0132433	1.37396	0.0000000E+000	-9.58343e-05	-1.14915
2	0	0	0	1	14969.3	0.18806	0.188151	-0.466178	1	-0.0135714	1.45887	0.0000000E+000	-8.77119e-05	-1.27072
2	0	0	1	1	14970.1	0.151389	0.151531	-0.508407	1	-0.01393	1.54982	0.0000000E+000	-7.70396e-05	-1.39829
2	0	0	0	1	14970.8	0.11472	0.114831	-0.537828	1	-0.0143158	1.62413	0.0000000E+000	-6.17591e-05	-1.5093
2	0	0	1	1	14971.5	0.0780509	0.0781602	-0.573623	1	-0.0147267	1.71106	0.0000000E+000	-4.48345e-05	-1.6329
2	0	0	1	1	14972.3	0.0413884	0.0414836	-0.613906	1	-0.0151633	1.80859	0.0000000E+000	-2.5467e-05	-1.76711
2	0	0	0	1	14973	0.00471938	0.00480393	-0.654025	1	-0.0156286	1.91094	0.0000000E+000	-3.14189e-06	-1.90613
2	0	0	1	1	14973.7	-0.0319497	-0.0318663	-0.689212	1	-0.01612	2.00965	0.0000000E+000	2.19626e-05	-2.04152
2	0	0	0	1	14974.5	-0.0686188	-0.0685927	-0.726954	1	-0.0166406	2.11628	0.0000000E+000	4.98637e-05	-2.18488
2	0	0	1	1	14975.2	-0.105291	-0.105227	-0.773803	1	-0.0171924	2.23828	0.0000000E+000	8.14254e-05	-2.34351
2	0	0	0	1	14975.9	-0.14196	-0.141932	-0.816365	1	-0.0177784	2.34452	0.0000000E+000	0.000115868	-2.48645
2	0	0	1	1	14976.7	-0.178629	-0.17852	-0.870482	1	-0.0183978	2.44089	0.0000000E+000	0.000155398	-2.61941
2	0	0	1	1	14977.3	-0.212132	-0.212122	-0.91816	2	-0.0189987	2.51784	0.0000000E+000	0.000194761	-2.72996
2	0	0	0	1	14978	-0.247301	-0.247195	-0.977281	2	-0.0196643	2.60784	0.0000000E+000	0.000241579	-2.85503
2	0	0	1	1	14978.8	-0.28397	-0.283879	-1.04514	2	-0.0204073	2.70648	0.0000000E+000	0.000296694	-2.99036
2	0	0	0	1	14979.5	-0.320639	-0.320557	-1.15088	2	-0.0212144	2.85123	0.0000000E+000	0.000368924	-3.17179
2	0	0	1	1	14980.2	-0.357311	-0.357234	-1.30094	2	-0.0221123	3.04922	0.0000000E+000	0.00046474	-3.40646
2	0	0	0	1	14981	-0.39398	-0.393894	-1.50235	2	-0.0231376	3.30696	0.0000000E+000	0.000591766	-3.70086
2	0	0	1	1	14981.7	-0.430649	-0.430543	-1.7149	2	-0.0243185	3.56893	0.0000000E+000	0.000738338	-3.99947
2	0	0	1	1	14982.4	-0.467312	-0.467221	-1.92431	2	-0.0256569	3.8138	0.0000000E+000	0.000899076	-4.28102
2	0	0	0	1	14983.2	-0.503981	-0.503904	-2.11135	2	-0.0271411	4.01824	0.0000000E+000	0.00106392	-4.52215
2	0	0	1	1	14983.9	-0.54065	-0.540581	-2.28196	2	-0.0287535	4.18991	0.0000000E+000	0.00123359	-4.73049
2	0	0	0	1	14984.6	-0.577319	-0.577254	-2.46151	2	-0.0304948	4.3618	0.0000000E+000	0.00142092	-4.93905
2	0	0	1	1	14985.4	-0.613992	-0.613906	-2.67137	2	-0.0323776	4.56051	0.0000000E+000	0.00163997	-5.17441
2	0	0	0	1	14986.1	-0.650661	-0.650549	-2.92394	2	-0.0344292	4.79696	0.0000000E+000	0.00190217	-5.44751
2	0	0	1	1	14986.8	-0.68733	-0.687252	-3.21139	2	-0.0366776	5.0594	0.0000000E+000	0.00220703	-5.74665
2	0	0	0	1	14987.6	-0.723999	-0.723938	-3.53604	2	-0.0391528	5.34925	0.0000000E+000	0.00255987	-6.07318
2	0	0	1	1	14988.3	-0.760671	-0.760663	-3.86464	2	-0.0418677	5.62821	0.0000000E+000	0.00293969	-6.38887
2	0	0	0	1	14989	-0.79734	-0.797326	-4.1782	2	-0.0448124	5.87774	0.0000000E+000	0.00333139	-6.67507
2	0	0	1	1	14989.8	-0.834009	-0.833962	-4.42367	2	-0.0479709	6.04431	0.0000000E+000	0.00368917	-6.87828
2	0	0	1	1	14990.5	-0.870672	-0.87065	-4.64733	2	-0.0513002	6.18114	0.0000000E+000	0.0040462	-7.05179
2	0	0	0	1	14991.2	-0.907341	-0.907317	-4.81399	2	-0.0547742	6.25413	0.0000000E+000	0.00436782	-7.16144
2	0	0	1	1	14992	-0.94401	-0.943967	-4.94141	2	-0.058353	6.28511	0.0000000E+000	0.00466453	-7.22908
2	0	0	0	1	14992.7	-0.980679	-0.980651	-5.03745	2	-0.0620146	6.28293	0.0000000E+000	0.00493998	-7.26358
2	0	0	1	1	14993.4	-1.01735	-1.01739	-5.12082	2	-0.0657368	6.26696	0.0000000E+000	0.00520987	-7.28435
2	0	0	0	1	14994.2	-1.05402	-1.05411	-5.19946	2	-0.0695247	6.24319	0.0000000E+000	0.00548079	-7.2973
2	0	0	1	1	14994.9	-1.09069	-1.09078	-5.27195	2	-0.0733665	6.21255	0.0000000E+000	0.00575053	-7.30333
2	0	0	0	1	14995.6	-1.12736	-1.12742	-5.29256	2	-0.0772493	6.13465	0.0000000E+000	0.00596695	-7.26207
2	0	0	1	1	14996.4	-1.16403	-1.16404	-5.32868	2	-0.0811484	6.07046	0.0000000E+000	0.00620278	-7.23449
2	0	0	0	1	14997.1	-1.2007	-1.20065	-5.42139	2	-0.0850958	6.05422	0.0000000E+000	0.0065092	-7.25487
2	0	0	1	1	14997.8	-1.23737	-1.23737	-5.50788	2	-0.0891074	6.03106	0.0000000E+000	0.00681527	-7.26843
2	0	0	1	1	14998.6	-1.27403	-1.27398	-5.65944	2	-0.0931963	6.05942	0.0000000E+000	0.00721	-7.33339
2	0	0	0	1	14999.3	-1.3107	-1.31064	-5.87019	2	-0.0974222	6.13052	0.0000000E+000	0.00769372	-7.44116
2	0	0	1	1	15000	-1.34737	-1.34731	-6.16343	2	-0.101837	6.26287	0.0000000E+000	0.00830404	-7.61018
2	0	0	0	1	15000.8	-1.38404	-1.38397	-6.57408	2	-0.106504	6.4777	0.0000000E+000	0.00909835	-7.86167
2	0	0	1	1	15001.5	-1.42071	-1.42057	-7.13704	2	-0.11152	6.79689	0.0000000E+000	0.0101387	-8.21746
2	0	0	0	1	15002.2	-1.45738	-1.45721	-7.883	2	-0.11702	7.23429	0.0000000E+000	0.0114872	-8.69151
2	0	0	1	1	15003	-1.49405	-1.49387	-8.85825	2	-0.123147	7.81498	0.0000000E+000	0.0132331	-9.30885
2	0	0	0	1	15003.7	-1.53072	-1.53051	-10.0778	2	-0.130074	8.53517	0.0000000E+000	0.0154242	-10.0657
2	0	0	1	1	15004.4	-1.56739	-1.56715	-11.5149	2	-0.137975	9.36262	0.0000000E+000	0.0180455	-10.9298
2	0	0	0	1	15005.2	-1.60406	-1.60381	-13.171	2	-0.147013	10.2818	0.0000000E+000	0.0211238	-11.8856
2	0	0	1	1	15005.9	-1.64073	-1.64049	-15.0988	2	-0.157369	11.319	0.0000000E+000	0.0247694	-12.9595
2	0	0	1	1	15006.6	-1.67739	-1.67714	-17.1549	2	-0.169185	12.3657	0.0000000E+000	0.0287713	-14.0428
2	0	0	0	1	15007.4	-1.71406	-1.7138	-19.3782	2	-0.182594	13.4474	0.0000000E+000	0.0332103	-15.1612
2	0	0	1	1	15008.1	-1.75073	-1.75046	-21.7631	2	-0.197694	14.5432	0.0000000E+000	0.0380954	-16.2936
2	0	0	0	1	15008.8	-1.7874	-1.78704	-24.2514	2	-0.214565	15.6257	0.0000000E+000	0.0433382	-17.4128
2	1	0	1	1	15009.5	-1.78141	-1.78145	-23.8562	2	-0.229796	15.0903	0.0000000E+000	0.0424986	-16.8717
2	1	0	0	1	15010.2	-1.74473	-1.7448	-21.3465	2	-0.246344	13.4223	0.0000000E+000	0.0372453	-15.1671
2	1	0	1	1	15010.9	-1.70806	-1.7081	-18.9733	2	-0.261114	11.9372	0.0000000E+000	0.0324083	-13.6453
2	1	0	0	1	15011.7	-1.67139	-1.67131	-16.6981	2	-0.274181	10.5749	0.0000000E+000	0.0279078	-12.2463
2	1	0	1	1	15012.4	-1.63472	-1.63466	-14.561	2	-0.285634	9.34666	0.0000000E+000	0.0238024	-10.9813
2	1	0	0	1	15013.1	-1.59805	-1.59798	-12.5191	2	-0.29555	8.19658	0.0000000E+000	0.0200053	-9.79456
2	1	0	1	1	15013.9	-1.56138	-1.5613	-10.5997	2	-0.304011	7.14476	0.0000000E+000	0.0165493	-8.70606
2	1	0	0	1	15014.6	-1.52471	-1.52463	-8.87322	2	-0.311128	6.20979	0.0000000E+000	0.0135284	-7.73442
2	1	0	0	1	15015.3	-1.48805	-1.48794	-7.31205	2	-0.317042	5.37165	0.0000000E+000	0.0108799	-6.85959
2	1	0	1	1	15016.1	-1.45138	-1.45127	-5.96832	2	-0.321892	4.65397	0.0000000E+000	0.00866167	-6.10524
2	1	0	0	1	15016.8	-1.41471	-1.41461	-4.81521	2	-0.325831	4.03915	0.0000000E+000	0.00681164	-5.45376
2	1	0	1	1	15017.5	-1.37805	-1.37789	-3.86129	2	-0.328993	3.52981	0.0000000E+000	0.00532045	-4.9077
2	1	0	0	1	15018.3	-1.34137	-1.34123	-3.12049	2	-0.33154	3.13216	0.0000000E+000	0.00418529	-4.47339
2	1	0	1	1	15019	-1.3047	-1.30455	-2.4949	2	-0.333587	2.79431	0.0000000E+000	0.00325472	-4.09886
2	1	0	0	1	15019.7	-1.26803	-1.26786	-2.01781	2	-0.335233	2.53481	0.0000000E+000	0.0025583	-3.80267
2	1	0	1	1	15020.5	-1.23136	-1.23116	-1.65728	2	-0.336574	2.33611	0.0000000E+000	0.00204037	-3.56727
2	1	0	0	1	15021.2	-1.19469	-1.19448	-1.37875	2	-0.33768	2.18101	0.0000000E+000	0.00164689	-3.37549
2	1	0	1	1	15021.9	-1.15802	-1.15787	-1.17335	2	-0.33861	2.06548	0.0000000E+000	0.00135858	-3.22335
2	1	0	0	1	15022.7	-1.12135	-1.12117	-1.0118	2	-0.339407	1.97383	0.0000000E+000	0.0011344	-3.095
2	1	0	0	1	15023.4	-1.08469	-1.08456	-0.867963	2	-0.340092	1.89103	0.0000000E+000	0.000941355	-2.97559
2	1	0	1	1	15024.1	-1.04802	-1.04791	-0.755159	2	-0.340684	1.82396	0.0000000E+000	0.000791336	-2.87186
2	1	0	0	1	15024.9	-1.01135	-1.01115	-0.660269	2	-0.341202	1.76763	0.0000000E+000	0.00066763	-2.77878
2	1	0	1	1	15025.6	-0.974684	-0.974502	-0.568449	2	-0.341651	1.71114	0.0000000E+000	0.000553954	-2.68564
2	1	0	0	1	15026.3	-0.938013	-0.937857	-0.482421	2	-0.342034	1.65719	0.0000000E+000	0.000452442	-2.59505
2	1	0	1	1	15027.1	-0.901344	-0.901163	-0.400134	2	-0.342354	1.60328	0.0000000E+000	0.000360586	-2.50445
2	1	0	0	1	15027.8	-0.864675	-0.864499	-0.305281	2	-0.342612	1.53808	0.0000000E+000	0.000263915	-2.40258
2	1	0	1	1	15028.5	-0.828002	-0.827832	-0.211548	2	-0.342802	1.46791	0.0000000E+000	0.000175126	-2.29574
2	1	0	0	1	15029.3	-0.791333	-0.791194	-0.109982	2	-0.342918	1.37508	0.0000000E+000	8.70173e-05	-2.16627
2	1	0	1	1	15030	-0.754664	-0.754501	-0.0281375	2	-0.342965	1.27814	0.0000000E+000	2.12298e-05	-2.03264
2	1	0	0	1	15030.7	-0.717995	-0.717852	0.0799281	2	-0.342944	1.15836	0.0000000E+000	-5.73765e-05	-1.87621
2	1	0	0	1	15031.5	-0.681333	-0.681164	0.171261	2	-0.342849	1.04101	0.0000000E+000	-0.000116657	-1.72217
2	1	0	1	1	15032.2	-0.644664	-0.64451	0.280236	2	-0.342681	0.900778	0.0000000E+000	-0.000180615	-1.54529
2	1	0	0	1	15032.9	-0.607994	-0.607817	0.396804	2	-0.342429	0.757427	0.0000000E+000	-0.000241184	-1.36524
2	1	0	1	1	15033.7	-0.571323	-0.571175	0.502225	2	-0.342097	0.61533	0.0000000E+000	-0.000286858	-1.1865
2	1	0	0	1	15034.4	-0.534653	-0.534474	0.584799	2	-0.341696	0.468161	0.0000000E+000	-0.00031256	-1.00263
2	1	0	1	1	15035.1	-0.497984	-0.497818	0.667304	2	-0.341234	0.322686	0.0000000E+000	-0.000332196	-0.820504
2	1	0	0	1	15035.9	-0.461315	-0.461161	0.747054	2	-0.340714	0.193889	0.0000000E+000	-0.000344512	-0.65505
2	1	0	1	1	15036.6	-0.424642	-0.424474	0.817995	2	-0.340137	0.0851404	0.0000000E+000	-0.000347218	-0.509615
2	1	0	0	1	15037.3	-0.387973	-0.387822	0.890507	2	-0.339505	-0.0120438	0.0000000E+000	-0.000345358	-0.375778
2	1	0	1	1	15038.1	-0.351304	-0.351109	0.968112	2	-0.33882	-0.0991183	0.0000000E+000	-0.000339913	-0.251991
2	1	0	0	1	15038.8	-0.314635	-0.314421	1.04635	2	-0.338077	-0.166714	0.0000000E+000	-0.000328995	-0.147707
2	1	0	0	1	15039.5	-0.277973	-0.277771	1.10701	2	-0.337286	-0.208188	0.0000000E+000	-0.000307497	-0.0695837
2	1	0	1	1	15040.3	-0.241304	-0.241109	1.16093	2	-0.33645	-0.242666	0.0000000E+000	-0.000279909	0.00155717
2	1	0	0	1	15041	-0.204634	-0.204403	1.18451	2	-0.335581	-0.258209	0.0000000E+000	-0.000242118	0.0538061
2	1	0	1	1	15041.7	-0.167962	-0.167724	1.23836	2	-0.334686	-0.293712	0.0000000E+000	-0.000207702	0.125988
2	1	0	0	1	15042.5	-0.131293	-0.13107	1.24681	2	-0.333771	-0.301655	0.0000000E+000	-0.000163419	0.170584
2	1	0	1	1	15043.2	-0.0946238	-0.0944163	1.27529	2	-0.332844	-0.322834	0.0000000E+000	-0.000120408	0.228418
2	1	0	0	1	15043.9	-0.0579548	-0.0577046	1.27317	2	-0.331907	-0.325242	0.0000000E+000	-7.3468e-05	0.267537
2	1	0	1	1	15044.7	-0.0212823	-0.0210567	1.28062	2	-0.330969	-0.333786	0.0000000E+000	-2.69656e-05	0.312729
2	1	0	0	1	15045.4	0.0153867	0.0156445	1.28305	2	-0.330027	-0.339565	0.0000000E+000	2.00728e-05	0.35521
2	1	0	1	1	15046.1	0.0520558	0.0523534	1.29153	2	-0.329078	-0.350106	0.0000000E+000	6.76157e-05	0.402459
2	1	0	0	1	15046.9	0.0887249	0.0890011	1.30723	2	-0.328124	-0.364445	0.0000000E+000	0.000116345	0.453446
2	1	0	0	1	15047.6	0.125387	0.125649	1.33248	2	-0.327157	-0.386124	0.0000000E+000	0.000167425	0.511772
2	1	0	1	1	15048.3	0.162056	0.162353	1.35367	2	-0.326171	-0.405516	0.0000000E+000	0.000219773	0.56787
2	1	0	0	1	15049.1	0.198725	0.19901	1.40651	2	-0.32516	-0.446062	0.0000000E+000	0.000279909	0.645071
2	1	0	1	1	15049.8	0.235398	0.23567	1.45783	2	-0.324107	-0.486972	0.0000000E+000	0.000343566	0.722642
2	1	0	0	1	15050.5	0.272067	0.272321	1.52928	2	-0.323009	-0.542186	0.0000000E+000	0.000416455	0.814507
2	1	0	1	1	15051.3	0.308736	0.309011	1.61965	2	-0.321853	-0.612573	0.0000000E+000	0.000500489	0.921585
2	1	0	0	1	15052	0.345405	0.345688	1.72502	2	-0.320628	-0.69517	0.0000000E+000	0.000596318	1.04086
2	1	0	1	1	15052.7	0.382077	0.382423	1.8529	2	-0.319314	-0.796711	0.0000000E+000	0.000708591	1.17913
2	1	0	0	1	15053.5	0.418747	0.419078	1.9974	2	-0.317902	-0.912765	0.0000000E+000	0.000837064	1.33184
2	1	0	1	1	15054.2	0.455416	0.455764	2.15775	2	-0.316382	-1.04405	0.0000000E+000	0.000983426	1.49982
2	1	0	1	1	15054.9	0.492081	0.492406	2.34597	2	-0.314731	-1.20291	0.0000000E+000	0.00115517	1.69531
2	1	0	0	1	15055.7	0.528747	0.529084	2.55755	2	-0.312932	-1.38371	0.0000000E+000	0.00135316	1.91279
2	1	0	1	1	15056.4	0.565416	0.565758	2.79068	2	-0.310973	-1.58602	0.0000000E+000	0.00157885	2.15178
2	1	0	0	1	15057.1	0.602085	0.602386	3.05412	2	-0.30883	-1.82429	0.0000000E+000	0.00183976	2.42668
2	1	0	1	1	15057.9	0.638758	0.639055	3.38101	2	-0.30647	-2.12383	0.0000000E+000	0.00216065	2.76288
2	1	0	0	1	15058.6	0.675427	0.675751	3.73467	2	-0.303865	-2.46119	0.0000000E+000	0.00252371	3.13695
2	1	0	1	1	15059.3	0.712096	0.712375	4.16532	2	-0.300971	-2.88531	0.0000000E+000	0.00296727	3.59769
2	1	0	0	1	15060.1	0.748765	0.749048	4.7106	2	-0.297724	-3.44625	0.0000000E+000	0.00352847	4.19529
2	1	0	1	1	15060.8	0.785437	0.78566	5.41981	2	-0.294019	-4.27068	0.0000000E+000	0.00425813	5.05634
2	1	0	0	1	15061.5	0.822106	0.822271	6.40226	2	-0.289696	-5.52635	0.0000000E+000	0.0052644	6.34862
2	1	0	1	1	15062.3	0.858775	0.858888	7.6833	2	-0.28454	-6.96878	0.0000000E+000	0.0065991	7.82766
2	1	0	1	1	15063	0.895438	0.895465	9.21854	2	-0.278344	-8.63998	0.0000000E+000	0.00825488	9.53545
2	1	0	0	1	15063.7	0.932107	0.931973	11.028	2	-0.270925	-10.7445	0.0000000E+000	0.0102778	11.6765
2	1	0	1	1	15064.5	0.968776	0.968634	13.0501	2	-0.262104	-13.2271	0.0000000E+000	0.0126408	14.1958
2	1	0	0	1	15065.2	1.00544	1.0052	15.2477	2	-0.251729	-16.1036	0.0000000E+000	0.015327	17.1088
2	1	0	1	1	15065.9	1.04212	1.0419	17.6101	2	-0.23968	-19.4233	0.0000000E+000	0.018348	20.4652
2	1	0	0	1	15066.7	1.07879	1.07854	19.9604	2	-0.225902	-23.0197	0.0000000E+000	0.0215281	24.0983
2	1	0	1	1	15067.4	1.11546	1.11505	22.432	2	-0.210353	-27.0973	0.0000000E+000	0.0250127	28.2124
2	1	0	0	1	15068.1	1.15212	1.15166	24.9837	2	-0.192967	-31.6202	0.0000000E+000	0.0287728	32.7719
2	1	0	1	1	15068.9	1.1888	1.15719	25.393	2	-0.174161	-33.6932	0.0000000E+000	0.0293845	34.8504
2	0	0	1	0	15069.5	1.17813	1.14319	24.3503	2	-0.157741	-33.7243	0.0000000E+000	0.0278371	34.8675
2	0	0	0	0	15070.3	1.14146	1.12912	23.2995	2	-0.140276	-33.7548	0.0000000E+000	0.026308	34.884
2	0	1	1	0	15071	1.10479	1.11491	22.3317	2	-0.123548	-33.7839	0.0000000E+000	0.0248978	34.8988
2	0	0	0	0	15071.7	1.06812	1.06883	19.0891	2	-0.108494	-30.1097	0.0000000E+000	0.020403	31.1785
2	0	0	1	0	15072.5	1.03145	1.03218	16.6894	2	-0.0953737	-27.3852	0.0000000E+000	0.0172265	28.4173
2	0	0	0	0	15073.2	0.994781	0.995518	14.3329	2	-0.0840063	-24.3645	0.0000000E+000	0.0142686	25.36
2	0	0	1	0	15073.9	0.958108	0.958852	11.9878	2	-0.0743567	-21.0168	0.0000000E+000	0.0114945	21.9757
2	0	0	0	0	15074.7	0.921439	0.922305	9.73928	2	-0.066399	-17.5313	0.0000000E+000	0.00898259	18.4536
2	0	0	1	0	15075.4	0.88477	0.885651	7.61174	2	-0.0600535	-14.0142	0.0000000E+000	0.00674134	14.8998
2	0	0	1	0	15076.1	0.848104	0.848963	5.64962	2	-0.055204	-10.6183	0.0000000E+000	0.00479632	11.4673
2	0	0	0	0	15076.9	0.811439	0.812176	3.88635	2	-0.0517247	-7.46126	0.0000000E+000	0.0031564	8.27344
2	0	0	1	0	15077.6	0.77477	0.775429	2.41422	2	-0.049436	-4.76849	0.0000000E+000	0.00187206	5.54392
2	0	0	0	0	15078.3	0.738101	0.738577	1.3534	2	-0.0480844	-2.78004	0.0000000E+000	0.000999593	3.51861
2	0	0	1	0	15079.1	0.701428	0.701787	0.720442	2	-0.0473517	-1.46276	0.0000000E+000	0.000505597	2.16455
2	0	0	0	0	15079.8	0.664759	0.665007	0.401023	2	-0.0469505	-0.158389	0.0000000E+000	0.000266683	0.823396
2	0	0	1	0	15080.5	0.62809	0.62829	0.232373	2	-0.0467227	0.116219	0.0000000E+000	0.000145997	0.51207
2	0	0	0	0	15081.3	0.591421	0.591575	0.113309	2	-0.0465995	0.328403	0.0000000E+000	6.70309e-05	0.263172
2	0	0	1	0	15082	0.554749	0.554896	0.0227739	2	-0.0465509	0.498911	0.0000000E+000	1.26371e-05	0.0559847
2	0	0	0	0	15082.7	0.51808	0.518176	-0.0509843	2	-0.0465635	0.638842	0.0000000E+000	-2.64188e-05	-0.120666
2	0	0	1	0	15083.5	0.481411	0.481521	-0.114423	2	-0.0466253	0.759773	0.0000000E+000	-5.5097e-05	-0.278251
2	0	0	1	0	15084.2	0.444748	0.444855	-0.168284	2	-0.0467334	0.863904	0.0000000E+000	-7.4862e-05	-0.419049
2	0	0	0	0	15084.9	0.408079	0.408196	-0.211302	2	-0.0468754	0.946908	0.0000000E+000	-8.62529e-05	-0.538712
2	0	0	1	0	15085.7	0.37141	0.371505	-0.265028	2	-0.0470512	1.04893	0.0000000E+000	-9.84592e-05	-0.677422
2	0	0	0	0	15086.4	0.334741	0.334832	-0.312808	2	-0.0472627	1.14068	0.0000000E+000	-0.000104738	-0.805852
2	0	0	1	0	15087.1	0.298069	0.298138	-0.343795	2	-0.0475025	1.20024	0.0000000E+000	-0.000102498	-0.902102
2	0	0	0	0	15087.9	0.2614	0.26146	-0.391056	2	-0.0477693	1.29235	0.0000000E+000	-0.000102245	-1.03089
2	0	0	1	0	15088.6	0.22473	0.224793	-0.413816	2	-0.048065	1.33982	0.0000000E+000	-9.30228e-05	-1.11502
2	0	0	0	0	15089.3	0.18806	0.188117	-0.445199	2	-0.0483832	1.40463	0.0000000E+000	-8.37495e-05	-1.21651
2	0	0	1	0	15090.1	0.151389	0.15146	-0.48083	2	-0.0487254	1.48112	0.0000000E+000	-7.28264e-05	-1.32966
2	0	0	0	0	15090.8	0.11472	0.114795	-0.514841	2	-0.0490948	1.56038	0.0000000E+000	-5.91011e-05	-1.44559
2	0	0	1	0	15091.5	0.0780509	0.0781646	-0.552243	2	-0.0494875	1.65082	0.0000000E+000	-4.31658e-05	-1.57266
2	0	0	1	0	15092.3	0.0413884	0.0414829	-0.589342	2	-0.0499098	1.74466	0.0000000E+000	-2.44476e-05	-1.70318
2	0	0	0	0	15093	0.00471938	0.00479994	-0.624419	2	-0.0503561	1.82949	0.0000000E+000	-2.99717e-06	-1.82469
2	0	0	1	0	15093.7	-0.0319497	-0.0319348	-0.665104	2	-0.0508316	1.92638	0.0000000E+000	2.12399e-05	-1.95831
2	0	0	0	0	15094.5	-0.0686188	-0.0686222	-0.69863	2	-0.0513327	2.01372	0.0000000E+000	4.79415e-05	-2.08234
2	0	0	1	0	15095.2	-0.105291	-0.105253	-0.741233	2	-0.0518617	2.12351	0.0000000E+000	7.80169e-05	-2.22876
2	0	0	0	0	15095.9	-0.14196	-0.141882	-0.79069	2	-0.0524238	2.25239	0.0000000E+000	0.000112184	-2.39428
2	0	0	1	0	15096.7	-0.178629	-0.178523	-0.845194	2	-0.0530238	2.3972	0.0000000E+000	0.000150887	-2.57572
2	0	0	1	0	15097.3	-0.212132	-0.212144	-0.890951	3	-0.0536066	2.52803	0.0000000E+000	0.00018901	-2.74018
2	0	0	0	0	15098	-0.247301	-0.247258	-0.946083	3	-0.0542521	2.68401	0.0000000E+000	0.000233926	-2.93127
2	0	0	1	0	15098.8	-0.28397	-0.283921	-1.01804	3	-0.0549724	2.87182	0.0000000E+000	0.000289042	-3.15574
2	0	0	0	0	15099.5	-0.320639	-0.320551	-1.12788	3	-0.0557574	3.09659	0.0000000E+000	0.000361543	-3.41714
2	0	0	1	0	15100.2	-0.357311	-0.35729	-1.29785	3	-0.0566427	3.39588	0.0000000E+000	0.00046371	-3.75317
2	0	0	0	0	15101	-0.39398	-0.39393	-1.50326	3	-0.0576661	3.74138	0.0000000E+000	0.00059218	-4.13531
2	0	0	1	0	15101.7	-0.430649	-0.430563	-1.74475	3	-0.0588622	4.1308	0.0000000E+000	0.000751224	-4.56137
2	0	0	1	0	15102.4	-0.467312	-0.467277	-1.97876	3	-0.0602293	4.48849	0.0000000E+000	0.000924626	-4.95577
2	0	0	0	0	15103.2	-0.503981	-0.503955	-2.19027	3	-0.0617626	4.79562	0.0000000E+000	0.0011038	-5.29958
2	0	0	1	0	15103.9	-0.54065	-0.540585	-2.38996	3	-0.0634403	5.0692	0.0000000E+000	0.00129197	-5.60978
2	0	0	0	0	15104.6	-0.577319	-0.57726	-2.58009	3	-0.0652636	5.31417	0.0000000E+000	0.00148938	-5.89143
2	0	0	1	0	15105.4	-0.613992	-0.613945	-2.78136	3	-0.0672323	5.56251	0.0000000E+000	0.0017076	-6.17645
2	0	0	0	0	15106.1	-0.650661	-0.65055	-2.9999	3	-0.0693514	5.82136	0.0000000E+000	0.00195158	-6.47191
2	0	0	1	0	15106.8	-0.68733	-0.687256	-3.28841	3	-0.0716576	6.16305	0.0000000E+000	0.00225998	-6.85031
2	0	0	0	0	15107.6	-0.723999	-0.7239	-3.56843	3	-0.0741738	6.46921	0.0000000E+000	0.00258318	-7.19311
2	0	0	1	0	15108.3	-0.760671	-0.76061	-3.87653	3	-0.0769006	6.7923	0.0000000E+000	0.00294853	-7.55291
2	0	0	0	0	15109	-0.79734	-0.797298	-4.1671	3	-0.0798564	7.06749	0.0000000E+000	0.00332242	-7.86479
2	0	0	1	0	15109.8	-0.834009	-0.834037	-4.43025	3	-0.0830145	7.28862	0.0000000E+000	0.00369499	-8.12266
2	0	0	1	0	15110.5	-0.870672	-0.870684	-4.64153	3	-0.0863436	7.43084	0.0000000E+000	0.00404131	-8.30152
2	0	0	0	0	15111.2	-0.907341	-0.907322	-4.85513	3	-0.0898276	7.57048	0.0000000E+000	0.00440517	-8.4778
2	0	0	1	0	15112	-0.94401	-0.944013	-5.01646	3	-0.09345	7.64085	0.0000000E+000	0.00473561	-8.58486
2	0	0	0	0	15112.7	-0.980679	-0.980688	-5.14345	3	-0.0971759	7.67017	0.0000000E+000	0.00504412	-8.65086
2	0	0	1	0	15113.4	-1.01735	-1.01741	-5.24872	3	-0.100988	7.67443	0.0000000E+000	0.00534011	-8.69184
2	0	0	0	0	15114.2	-1.05402	-1.05412	-5.33251	3	-0.104866	7.6557	0.0000000E+000	0.00562112	-8.70982
2	0	0	1	0	15114.9	-1.09069	-1.09076	-5.41595	3	-0.108812	7.63697	0.0000000E+000	0.0059075	-8.72773
2	0	0	0	0	15115.6	-1.12736	-1.12741	-5.49639	3	-0.112817	7.61607	0.0000000E+000	0.00619668	-8.74348
2	0	0	1	0	15116.4	-1.16403	-1.16406	-5.51997	3	-0.11686	7.53284	0.0000000E+000	0.0064256	-8.6969
2	0	0	0	0	15117.1	-1.2007	-1.20068	-5.61204	3	-0.120941	7.52422	0.0000000E+000	0.00673827	-8.7249
2	0	0	1	0	15117.8	-1.23737	-1.23736	-5.6807	3	-0.125083	7.48948	0.0000000E+000	0.0070291	-8.72685
2	0	0	1	0	15118.6	-1.27403	-1.27398	-5.78933	3	-0.129287	7.49259	0.0000000E+000	0.00737549	-8.76657
2	0	0	0	0	15119.3	-1.3107	-1.31067	-5.97686	3	-0.133596	7.57133	0.0000000E+000	0.0078337	-8.882
2	0	0	1	0	15120	-1.34737	-1.34736	-6.20513	3	-0.138064	7.6806	0.0000000E+000	0.00836058	-9.02796
2	0	0	0	0	15120.8	-1.38404	-1.38396	-6.53494	3	-0.142729	7.87754	0.0000000E+000	0.0090441	-9.2615
2	0	0	1	0	15121.5	-1.42071	-1.42062	-6.97334	3	-0.147683	8.1571	0.0000000E+000	0.00990649	-9.57773
2	0	0	0	0	15122.2	-1.45738	-1.45723	-7.5842	3	-0.153008	8.56902	0.0000000E+000	0.0110519	-10.0262
2	0	0	1	0	15123	-1.49405	-1.49385	-8.42059	3	-0.158867	9.14639	0.0000000E+000	0.0125791	-10.6402
2	0	0	0	0	15123.7	-1.53072	-1.53051	-9.4491	3	-0.165412	9.83624	0.0000000E+000	0.0144619	-11.3667
2	0	0	1	0	15124.4	-1.56739	-1.56718	-10.7569	3	-0.172816	10.6984	0.0000000E+000	0.0168579	-12.2655
2	0	0	0	0	15125.2	-1.60406	-1.6038	-12.2928	3	-0.181255	11.6804	0.0000000E+000	0.0197152	-13.2842
2	0	0	1	0	15125.9	-1.64073	-1.64045	-14.0632	3	-0.190908	12.7778	0.0000000E+000	0.02307	-14.4183
2	0	0	1	0	15126.6	-1.67739	-1.67702	-16.0788	3	-0.201963	13.9842	0.0000000E+000	0.0269645	-15.6613
2	0	0	0	0	15127.4	-1.71406	-1.71371	-18.2331	3	-0.214547	15.2106	0.0000000E+000	0.0312464	-16.9243
2	0	0	1	0	15128.1	-1.75073	-1.75036	-20.6038	3	-0.228787	16.4838	0.0000000E+000	0.0360642	-18.2341
2	0	0	0	0	15128.8	-1.7874	-1.78701	-23.0336	3	-0.244777	17.6787	0.0000000E+000	0.0411614	-19.4658
2	1	0	1	0	15129.5	-1.78141	-1.78162	-22.6	3	-0.259244	16.9401	0.0000000E+000	0.0402645	-18.7217
2	1	0	0	0	15130.2	-1.74473	-1.74492	-20.1945	3	-0.274918	14.9543	0.0000000E+000	0.0352378	-16.6992
2	1	0	1	0	15130.9	-1.70806	-1.7082	-17.792	3	-0.288819	13.1241	0.0000000E+000	0.0303923	-14.8323
2	1	0	0	0	15131.7	-1.67139	-1.67141	-15.5579	3	-0.301037	11.5131	0.0000000E+000	0.0260036	-13.1845
2	1	0	1	0	15132.4	-1.63472	-1.63477	-13.408	3	-0.311648	10.0275	0.0000000E+000	0.0219191	-11.6623
2	1	0	0	0	15133.1	-1.59805	-1.59805	-11.4195	3	-0.320745	8.70089	0.0000000E+000	0.0182488	-10.2989
2	1	0	1	0	15133.9	-1.56138	-1.56138	-9.55184	3	-0.328425	7.48444	0.0000000E+000	0.014914	-9.04582
2	1	0	0	0	15134.6	-1.52471	-1.52467	-7.90885	3	-0.334809	6.42692	0.0000000E+000	0.0120584	-7.9516
2	1	0	0	0	15135.3	-1.48805	-1.488	-6.4588	3	-0.340058	5.50887	0.0000000E+000	0.00961069	-6.99687
2	1	0	1	0	15136.1	-1.45138	-1.45132	-5.18611	3	-0.344309	4.70853	0.0000000E+000	0.0075267	-6.15985
2	1	0	0	0	15136.8	-1.41471	-1.4146	-4.16088	3	-0.347724	4.06525	0.0000000E+000	0.00588597	-5.47985
2	1	0	1	0	15137.5	-1.37805	-1.3779	-3.35302	3	-0.35047	3.55582	0.0000000E+000	0.00462013	-4.93372
2	1	0	0	0	15138.3	-1.34137	-1.34124	-2.71354	3	-0.352686	3.15297	0.0000000E+000	0.00363952	-4.49421
2	1	0	1	0	15139	-1.3047	-1.30454	-2.22922	3	-0.354488	2.84663	0.0000000E+000	0.0029081	-4.15116
2	1	0	0	0	15139.7	-1.26803	-1.26788	-1.85963	3	-0.355978	2.61103	0.0000000E+000	0.00235779	-3.87891
2	1	0	1	0	15140.5	-1.23136	-1.23119	-1.60825	3	-0.357243	2.4497	0.0000000E+000	0.00198006	-3.68089
2	1	0	0	0	15141.2	-1.19469	-1.19455	-1.38202	3	-0.358333	2.30368	0.0000000E+000	0.00165089	-3.49823
2	1	0	1	0	15141.9	-1.15802	-1.15787	-1.20914	3	-0.359277	2.19117	0.0000000E+000	0.00140003	-3.34905
2	1	0	0	0	15142.7	-1.12135	-1.12121	-1.07058	3	-0.360111	2.10068	0.0000000E+000	0.00120034	-3.22189
2	1	0	0	0	15143.4	-1.08469	-1.08456	-0.952333	3	-0.36085	2.02291	0.0000000E+000	0.00103286	-3.10747
2	1	0	1	0	15144.1	-1.04802	-1.04787	-0.859207	3	-0.361511	1.96056	0.0000000E+000	0.000900339	-3.00843
2	1	0	0	0	15144.9	-1.01135	-1.01112	-0.768812	3	-0.362109	1.89932	0.0000000E+000	0.000777365	-2.91045
2	1	0	1	0	15145.6	-0.974684	-0.974465	-0.689256	3	-0.362636	1.84483	0.0000000E+000	0.000671656	-2.81929
2	1	0	0	0	15146.3	-0.938013	-0.937809	-0.588995	3	-0.3631	1.77556	0.0000000E+000	0.000552365	-2.71337
2	1	0	1	0	15147.1	-0.901344	-0.90118	-0.509201	3	-0.363499	1.7183	0.0000000E+000	0.000458882	-2.61948
2	1	0	0	0	15147.8	-0.864675	-0.864492	-0.422089	3	-0.363844	1.65562	0.0000000E+000	0.000364893	-2.52012
2	1	0	1	0	15148.5	-0.828002	-0.827868	-0.322135	3	-0.364114	1.57824	0.0000000E+000	0.000266685	-2.4061
2	1	0	0	0	15149.3	-0.791333	-0.791191	-0.22951	3	-0.364316	1.49931	0.0000000E+000	0.000181587	-2.2905
2	1	0	1	0	15150	-0.754664	-0.754509	-0.145184	3	-0.364452	1.41732	0.0000000E+000	0.000109543	-2.17183
2	1	0	0	0	15150.7	-0.717995	-0.717849	-0.019472	3	-0.364511	1.2771	0.0000000E+000	1.39779e-05	-1.99495
2	1	0	0	0	15151.5	-0.681333	-0.681158	0.0845877	3	-0.364483	1.13992	0.0000000E+000	-5.76176e-05	-1.82107
2	1	0	1	0	15152.2	-0.644664	-0.644506	0.204913	3	-0.364376	0.983928	0.0000000E+000	-0.000132068	-1.62843
2	1	0	0	0	15152.9	-0.607994	-0.607845	0.323877	3	-0.364176	0.818095	0.0000000E+000	-0.000196867	-1.42594
2	1	0	1	0	15153.7	-0.571323	-0.571195	0.451025	3	-0.363887	0.653073	0.0000000E+000	-0.000257623	-1.22427
2	1	0	0	0	15154.4	-0.534653	-0.534524	0.543869	3	-0.363516	0.496216	0.0000000E+000	-0.000290711	-1.03074
2	1	0	1	0	15155.1	-0.497984	-0.497806	0.618452	3	-0.363087	0.342667	0.0000000E+000	-0.000307869	-0.840473
2	1	0	0	0	15155.9	-0.461315	-0.461173	0.71036	3	-0.362597	0.188482	0.0000000E+000	-0.000327599	-0.649655
2	1	0	1	0	15156.6	-0.424642	-0.42447	0.791706	3	-0.362045	0.0558735	0.0000000E+000	-0.000336056	-0.480344
2	1	0	0	0	15157.3	-0.387973	-0.387799	0.865372	3	-0.361434	-0.0602205	0.0000000E+000	-0.000335591	-0.327579
2	1	0	1	0	15158.1	-0.351304	-0.351121	0.955525	3	-0.360762	-0.178348	0.0000000E+000	-0.000335505	-0.172774
2	1	0	0	0	15158.8	-0.314635	-0.314414	1.03539	3	-0.36003	-0.258548	0.0000000E+000	-0.000325541	-0.0558653
2	1	0	0	0	15159.5	-0.277973	-0.277764	1.1029	3	-0.359243	-0.307247	0.0000000E+000	-0.000306346	0.0294838
2	1	0	1	0	15160.3	-0.241304	-0.24108	1.16372	3	-0.358409	-0.349988	0.0000000E+000	-0.000280549	0.108908
2	1	0	0	0	15161	-0.204634	-0.204422	1.19298	3	-0.357545	-0.371725	0.0000000E+000	-0.00024387	0.167302
2	1	0	1	0	15161.7	-0.167962	-0.167744	1.23456	3	-0.356653	-0.404617	0.0000000E+000	-0.000207091	0.236873
2	1	0	0	0	15162.5	-0.131293	-0.131061	1.25208	3	-0.355741	-0.420926	0.0000000E+000	-0.000164098	0.289865
2	1	0	1	0	15163.2	-0.0946238	-0.094375	1.25659	3	-0.354822	-0.428603	0.0000000E+000	-0.000118591	0.334228
2	1	0	0	0	15163.9	-0.0579548	-0.0577163	1.26073	3	-0.3539	-0.436138	0.0000000E+000	-7.27644e-05	0.378421
2	1	0	1	0	15164.7	-0.0212823	-0.0210451	1.25887	3	-0.352972	-0.439907	0.0000000E+000	-2.6493e-05	0.418862
2	1	0	0	0	15165.4	0.0153867	0.0156692	1.25437	3	-0.352047	-0.441532	0.0000000E+000	1.9655e-05	0.457201
2	1	0	1	0	15166.1	0.0520558	0.0523371	1.2668	3	-0.35112	-0.456062	0.0000000E+000	6.63008e-05	0.508399
2	1	0	0	0	15166.9	0.0887249	0.0890063	1.27063	3	-0.35019	-0.464117	0.0000000E+000	0.000113094	0.553123
2	1	0	0	0	15167.6	0.125387	0.125671	1.28559	3	-0.349254	-0.480673	0.0000000E+000	0.000161562	0.606345
2	1	0	1	0	15168.3	0.162056	0.162323	1.30832	3	-0.348304	-0.503652	0.0000000E+000	0.00021237	0.665975
2	1	0	0	0	15169.1	0.198725	0.199004	1.34208	3	-0.34733	-0.535701	0.0000000E+000	0.00026708	0.734705
2	1	0	1	0	15169.8	0.235398	0.235681	1.39095	3	-0.346325	-0.580351	0.0000000E+000	0.000327821	0.816033
2	1	0	0	0	15170.5	0.272067	0.272347	1.45766	3	-0.345279	-0.639473	0.0000000E+000	0.00039699	0.911819
2	1	0	1	0	15171.3	0.308736	0.309003	1.53251	3	-0.344182	-0.707089	0.0000000E+000	0.000473552	1.01609
2	1	0	0	0	15172	0.345405	0.34572	1.61744	3	-0.343028	-0.784056	0.0000000E+000	0.000559181	1.12978
2	1	0	1	0	15172.7	0.382077	0.382403	1.73245	3	-0.341798	-0.887445	0.0000000E+000	0.000662495	1.26985
2	1	0	0	0	15173.5	0.418747	0.419082	1.8609	3	-0.340482	-1.00433	0.0000000E+000	0.000779871	1.42341
2	1	0	1	0	15174.2	0.455416	0.455695	2.01364	3	-0.339062	-1.14468	0.0000000E+000	0.000917603	1.60038
2	1	0	1	0	15174.9	0.492081	0.492384	2.1796	3	-0.337522	-1.30169	0.0000000E+000	0.0010732	1.79408
2	1	0	0	0	15175.7	0.528747	0.529071	2.37869	3	-0.335848	-1.49262	0.0000000E+000	0.0012585	2.02169
2	1	0	1	0	15176.4	0.565416	0.5657	2.61091	3	-0.334018	-1.7184	0.0000000E+000	0.00147699	2.2841
2	1	0	0	0	15177.1	0.602085	0.60239	2.86682	3	-0.332009	-1.97647	0.0000000E+000	0.00172694	2.57886
2	1	0	1	0	15177.9	0.638758	0.639019	3.15202	3	-0.329801	-2.27403	0.0000000E+000	0.0020142	2.91304
2	1	0	0	0	15178.6	0.675427	0.675703	3.49579	3	-0.32737	-2.64323	0.0000000E+000	0.00236212	3.31894
2	1	0	1	0	15179.3	0.712096	0.712358	3.91436	3	-0.324657	-3.11493	0.0000000E+000	0.00278842	3.82729
2	1	0	0	0	15180.1	0.748765	0.749024	4.48744	3	-0.321586	-3.82183	0.0000000E+000	0.0033612	4.57086
2	1	0	1	0	15180.8	0.785437	0.78566	5.27786	3	-0.318022	-4.931	0.0000000E+000	0.0041466	5.71666
2	1	0	0	0	15181.5	0.822106	0.822199	6.3871	3	-0.313763	-6.26643	0.0000000E+000	0.00525147	7.08863
2	1	0	1	0	15182.3	0.858775	0.858824	7.80828	3	-0.308573	-7.91232	0.0000000E+000	0.00670593	8.77114
2	1	0	1	0	15183	0.895438	0.895381	9.51331	3	-0.302232	-9.9604	0.0000000E+000	0.00851804	10.8558
2	1	0	0	0	15183.7	0.932107	0.931924	11.436	3	-0.294554	-12.4105	0.0000000E+000	0.0106574	13.3424
2	1	0	1	0	15184.5	0.968776	0.968591	13.5843	3	-0.285382	-15.353	0.0000000E+000	0.0131576	16.3216
2	1	0	0	0	15185.2	1.00544	1.00513	15.788	3	-0.274626	-18.6456	0.0000000E+000	0.015869	19.6507
2	1	0	1	0	15185.9	1.04212	1.04179	18.1651	3	-0.262185	-22.4818	0.0000000E+000	0.0189243	23.5236
2	1	0	0	0	15186.7	1.07879	1.07834	20.5593	3	-0.247993	-26.6745	0.0000000E+000	0.0221699	27.7528
2	1	0	1	0	15187.4	1.11546	1.11486	23.0263	3	-0.232002	-31.301	0.0000000E+000	0.0256711	32.4159
2	1	0	0	0	15188.1	1.15212	1.12573	23.6727	3	-0.214551	-33.7481	0.0000000E+000	0.026649	34.8738
2	1	0	1	0	15188.9	1.1888	1.11124	22.6423	3	-0.197575	-33.7801	0.0000000E+000	0.0251609	34.8913
2	0	0	1	1	15189.5	1.17813	1.09846	21.7839	3	-0.182909	-33.8068	0.0000000E+000	0.0239288	34.9052
2	0	1	0	1	15190.3	1.14146	1.08611	20.8751	3	-0.16727	-33.8334	0.0000000E+000	0.0226726	34.9196
2	0	1	1	1	15191	1.10479	1.07398	20.0545	3	-0.152272	-33.8578	0.0000000E+000	0.0215381	34.9318
2	0	1	0	1	15191.7	1.06812	1.06426	19.3605	3	-0.137828	-33.8785	0.0000000E+000	0.0206047	34.9427
2	0	1	0	1	15192	1.05629	1.06108	19.1694	3	-0.133305	-33.885	0.0000000E+000	0.0203402	34.9461